<?xml version="1.0" encoding="UTF-8"?>
<!-- Dataset-XML: Untyped Data Example  --> 
<!-- Built from the SAS XPT files published with the SDTM-MSG (SDTM Metadata Submission Guidelines) V1 --> 
<!-- Prepared by Marcelina Hungria / DIcore Group, LLC --> 
<ODM
  xmlns="http://www.cdisc.org/ns/odm/v1.3"
  xmlns:xlink="http://www.w3.org/1999/xlink" 
  xmlns:data="http://www.cdisc.org/ns/Dataset-XML/v1.0"
  FileType="Snapshot"
  ODMVersion="1.3.2"
  data:DatasetXMLVersion="1.0.0"
  FileOID="www.cdisc.org.Studycdisc01-Define-XML_2.0.0(IG.CM)"
  PriorFileOID="www.cdisc.org.Studycdisc01-Define-XML_2.0.0"
  Originator="CDISC Dataset-XML Team"
  CreationDateTime="2014-04-01T09:31:03">
  <ClinicalData
    StudyOID="cdisc01"
    MetaDataVersionOID="MDV.CDISC01.SDTMIG.3.1.2.SDTM.1.2">
    <!-- Dataset (CM) -->
    <ItemGroupData ItemGroupOID="IG.CM" data:ItemGroupDataSeq="1">
      <ItemData ItemOID="IT.STUDYID" Value="CDISC01"/>
      <ItemData ItemOID="IT.CM.DOMAIN" Value="CM"/>
      <ItemData ItemOID="IT.USUBJID" Value="CDISC01.100008"/>
      <ItemData ItemOID="IT.CM.CMSEQ" Value="1"/>
      <ItemData ItemOID="IT.CM.CMTRT" Value="PROCARDIA XL"/>
      <ItemData ItemOID="IT.CM.CMDECOD" Value="NIFEDIPINE"/>
      <ItemData ItemOID="IT.CM.CMCAT" Value="CONCOMITANT MEDICATIONS"/>
      <ItemData ItemOID="IT.CM.CMINDC" Value="HYPERTENSION"/>
      <ItemData ItemOID="IT.CM.CMCLAS" Value="CALCIUM CHANNEL BLOCKERS"/>
      <ItemData ItemOID="IT.CM.CMCLASCD" Value="C08"/>
      <ItemData ItemOID="IT.CM.CMDOSTXT" Value="60"/>
      <ItemData ItemOID="IT.CM.CMDOSU" Value="mg"/>
      <ItemData ItemOID="IT.CM.CMDOSFRQ" Value="Q24H"/>
      <ItemData ItemOID="IT.CM.CMROUTE" Value="ORAL"/>
      <ItemData ItemOID="IT.CM.CMSTDTC" Value="1986"/>
      <ItemData ItemOID="IT.CM.CMSTDY" Value="-5963"/>
      <ItemData ItemOID="IT.CM.CMENRF" Value="AFTER"/>
    </ItemGroupData>
    <ItemGroupData ItemGroupOID="IG.CM" data:ItemGroupDataSeq="2">
      <ItemData ItemOID="IT.STUDYID" Value="CDISC01"/>
      <ItemData ItemOID="IT.CM.DOMAIN" Value="CM"/>
      <ItemData ItemOID="IT.USUBJID" Value="CDISC01.100008"/>
      <ItemData ItemOID="IT.CM.CMSEQ" Value="2"/>
      <ItemData ItemOID="IT.CM.CMTRT" Value="GLYBURIDE"/>
      <ItemData ItemOID="IT.CM.CMDECOD" Value="GLIBENCLAMIDE"/>
      <ItemData ItemOID="IT.CM.CMCAT" Value="CONCOMITANT MEDICATIONS"/>
      <ItemData ItemOID="IT.CM.CMINDC" Value="DIABETES"/>
      <ItemData ItemOID="IT.CM.CMCLAS" Value="DRUGS USED IN DIABETES"/>
      <ItemData ItemOID="IT.CM.CMCLASCD" Value="A10"/>
      <ItemData ItemOID="IT.CM.CMDOSTXT" Value="5"/>
      <ItemData ItemOID="IT.CM.CMDOSU" Value="mg"/>
      <ItemData ItemOID="IT.CM.CMDOSFRQ" Value="BID"/>
      <ItemData ItemOID="IT.CM.CMROUTE" Value="ORAL"/>
      <ItemData ItemOID="IT.CM.CMSTDTC" Value="1987"/>
      <ItemData ItemOID="IT.CM.CMSTDY" Value="-5598"/>
      <ItemData ItemOID="IT.CM.CMENRF" Value="AFTER"/>
    </ItemGroupData>
    <ItemGroupData ItemGroupOID="IG.CM" data:ItemGroupDataSeq="3">
      <ItemData ItemOID="IT.STUDYID" Value="CDISC01"/>
      <ItemData ItemOID="IT.CM.DOMAIN" Value="CM"/>
      <ItemData ItemOID="IT.USUBJID" Value="CDISC01.100008"/>
      <ItemData ItemOID="IT.CM.CMSEQ" Value="3"/>
      <ItemData ItemOID="IT.CM.CMTRT" Value="ACCUPRIL"/>
      <ItemData ItemOID="IT.CM.CMDECOD" Value="QUINAPRIL HYDROCHLORIDE"/>
      <ItemData ItemOID="IT.CM.CMCAT" Value="CONCOMITANT MEDICATIONS"/>
      <ItemData ItemOID="IT.CM.CMINDC" Value="HYPERTENSION"/>
      <ItemData ItemOID="IT.CM.CMCLAS" Value="AGENTS ACTING ON THE RENIN-ANGIOTENSIN SYSTEM"/>
      <ItemData ItemOID="IT.CM.CMCLASCD" Value="C09"/>
      <ItemData ItemOID="IT.CM.CMDOSTXT" Value="20"/>
      <ItemData ItemOID="IT.CM.CMDOSU" Value="mg"/>
      <ItemData ItemOID="IT.CM.CMDOSFRQ" Value="Q24H"/>
      <ItemData ItemOID="IT.CM.CMROUTE" Value="ORAL"/>
      <ItemData ItemOID="IT.CM.CMSTDTC" Value="1995"/>
      <ItemData ItemOID="IT.CM.CMSTDY" Value="-2676"/>
      <ItemData ItemOID="IT.CM.CMENRF" Value="AFTER"/>
    </ItemGroupData>
    <ItemGroupData ItemGroupOID="IG.CM" data:ItemGroupDataSeq="4">
      <ItemData ItemOID="IT.STUDYID" Value="CDISC01"/>
      <ItemData ItemOID="IT.CM.DOMAIN" Value="CM"/>
      <ItemData ItemOID="IT.USUBJID" Value="CDISC01.100008"/>
      <ItemData ItemOID="IT.CM.CMSEQ" Value="4"/>
      <ItemData ItemOID="IT.CM.CMTRT" Value="CALCIUM"/>
      <ItemData ItemOID="IT.CM.CMDECOD" Value="CALCIUM"/>
      <ItemData ItemOID="IT.CM.CMCAT" Value="CONCOMITANT MEDICATIONS"/>
      <ItemData ItemOID="IT.CM.CMINDC" Value="SUPPLEMENT"/>
      <ItemData ItemOID="IT.CM.CMCLAS" Value="MINERAL SUPPLEMENTS"/>
      <ItemData ItemOID="IT.CM.CMCLASCD" Value="A12"/>
      <ItemData ItemOID="IT.CM.CMDOSTXT" Value="600"/>
      <ItemData ItemOID="IT.CM.CMDOSU" Value="mg"/>
      <ItemData ItemOID="IT.CM.CMDOSFRQ" Value="Q24H"/>
      <ItemData ItemOID="IT.CM.CMROUTE" Value="ORAL"/>
      <ItemData ItemOID="IT.CM.CMSTDTC" Value="1995"/>
      <ItemData ItemOID="IT.CM.CMSTDY" Value="-2676"/>
      <ItemData ItemOID="IT.CM.CMENRF" Value="AFTER"/>
    </ItemGroupData>
    <ItemGroupData ItemGroupOID="IG.CM" data:ItemGroupDataSeq="5">
      <ItemData ItemOID="IT.STUDYID" Value="CDISC01"/>
      <ItemData ItemOID="IT.CM.DOMAIN" Value="CM"/>
      <ItemData ItemOID="IT.USUBJID" Value="CDISC01.100008"/>
      <ItemData ItemOID="IT.CM.CMSEQ" Value="5"/>
      <ItemData ItemOID="IT.CM.CMTRT" Value="GLUCOPHAGE"/>
      <ItemData ItemOID="IT.CM.CMDECOD" Value="METFORMIN HYDROCHLORIDE"/>
      <ItemData ItemOID="IT.CM.CMCAT" Value="CONCOMITANT MEDICATIONS"/>
      <ItemData ItemOID="IT.CM.CMINDC" Value="DIABETES"/>
      <ItemData ItemOID="IT.CM.CMCLAS" Value="DRUGS USED IN DIABETES"/>
      <ItemData ItemOID="IT.CM.CMCLASCD" Value="A10"/>
      <ItemData ItemOID="IT.CM.CMDOSTXT" Value="1000"/>
      <ItemData ItemOID="IT.CM.CMDOSU" Value="mg"/>
      <ItemData ItemOID="IT.CM.CMDOSFRQ" Value="Q24H"/>
      <ItemData ItemOID="IT.CM.CMROUTE" Value="ORAL"/>
      <ItemData ItemOID="IT.CM.CMSTDTC" Value="1995"/>
      <ItemData ItemOID="IT.CM.CMSTDY" Value="-2676"/>
      <ItemData ItemOID="IT.CM.CMENRF" Value="AFTER"/>
    </ItemGroupData>
    <ItemGroupData ItemGroupOID="IG.CM" data:ItemGroupDataSeq="6">
      <ItemData ItemOID="IT.STUDYID" Value="CDISC01"/>
      <ItemData ItemOID="IT.CM.DOMAIN" Value="CM"/>
      <ItemData ItemOID="IT.USUBJID" Value="CDISC01.100008"/>
      <ItemData ItemOID="IT.CM.CMSEQ" Value="6"/>
      <ItemData ItemOID="IT.CM.CMTRT" Value="GLUCOPHAGE"/>
      <ItemData ItemOID="IT.CM.CMDECOD" Value="METFORMIN HYDROCHLORIDE"/>
      <ItemData ItemOID="IT.CM.CMCAT" Value="CONCOMITANT MEDICATIONS"/>
      <ItemData ItemOID="IT.CM.CMINDC" Value="DIABETES"/>
      <ItemData ItemOID="IT.CM.CMCLAS" Value="DRUGS USED IN DIABETES"/>
      <ItemData ItemOID="IT.CM.CMCLASCD" Value="A10"/>
      <ItemData ItemOID="IT.CM.CMDOSTXT" Value="500"/>
      <ItemData ItemOID="IT.CM.CMDOSU" Value="mg"/>
      <ItemData ItemOID="IT.CM.CMDOSFRQ" Value="Q24H"/>
      <ItemData ItemOID="IT.CM.CMROUTE" Value="ORAL"/>
      <ItemData ItemOID="IT.CM.CMSTDTC" Value="1995"/>
      <ItemData ItemOID="IT.CM.CMSTDY" Value="-2676"/>
      <ItemData ItemOID="IT.CM.CMENRF" Value="AFTER"/>
    </ItemGroupData>
    <ItemGroupData ItemGroupOID="IG.CM" data:ItemGroupDataSeq="7">
      <ItemData ItemOID="IT.STUDYID" Value="CDISC01"/>
      <ItemData ItemOID="IT.CM.DOMAIN" Value="CM"/>
      <ItemData ItemOID="IT.USUBJID" Value="CDISC01.100008"/>
      <ItemData ItemOID="IT.CM.CMSEQ" Value="7"/>
      <ItemData ItemOID="IT.CM.CMTRT" Value="MAGNESIUM"/>
      <ItemData ItemOID="IT.CM.CMDECOD" Value="MAGNESIUM"/>
      <ItemData ItemOID="IT.CM.CMCAT" Value="CONCOMITANT MEDICATIONS"/>
      <ItemData ItemOID="IT.CM.CMINDC" Value="SUPPLEMENT"/>
      <ItemData ItemOID="IT.CM.CMCLAS" Value="MINERAL SUPPLEMENTS"/>
      <ItemData ItemOID="IT.CM.CMCLASCD" Value="A12"/>
      <ItemData ItemOID="IT.CM.CMDOSTXT" Value="400"/>
      <ItemData ItemOID="IT.CM.CMDOSU" Value="mg"/>
      <ItemData ItemOID="IT.CM.CMDOSFRQ" Value="Q24H"/>
      <ItemData ItemOID="IT.CM.CMROUTE" Value="ORAL"/>
      <ItemData ItemOID="IT.CM.CMSTDTC" Value="1995"/>
      <ItemData ItemOID="IT.CM.CMSTDY" Value="-2676"/>
      <ItemData ItemOID="IT.CM.CMENRF" Value="AFTER"/>
    </ItemGroupData>
    <ItemGroupData ItemGroupOID="IG.CM" data:ItemGroupDataSeq="8">
      <ItemData ItemOID="IT.STUDYID" Value="CDISC01"/>
      <ItemData ItemOID="IT.CM.DOMAIN" Value="CM"/>
      <ItemData ItemOID="IT.USUBJID" Value="CDISC01.100008"/>
      <ItemData ItemOID="IT.CM.CMSEQ" Value="8"/>
      <ItemData ItemOID="IT.CM.CMTRT" Value="MULTIVITAMIN"/>
      <ItemData ItemOID="IT.CM.CMDECOD" Value="MULTIVITAMINS"/>
      <ItemData ItemOID="IT.CM.CMCAT" Value="CONCOMITANT MEDICATIONS"/>
      <ItemData ItemOID="IT.CM.CMINDC" Value="SUPPLEMENT"/>
      <ItemData ItemOID="IT.CM.CMCLAS" Value="VITAMINS"/>
      <ItemData ItemOID="IT.CM.CMCLASCD" Value="A11"/>
      <ItemData ItemOID="IT.CM.CMDOSTXT" Value="1"/>
      <ItemData ItemOID="IT.CM.CMDOSU" Value="TABLET"/>
      <ItemData ItemOID="IT.CM.CMDOSFRQ" Value="Q24H"/>
      <ItemData ItemOID="IT.CM.CMROUTE" Value="ORAL"/>
      <ItemData ItemOID="IT.CM.CMSTDTC" Value="1995"/>
      <ItemData ItemOID="IT.CM.CMSTDY" Value="-2676"/>
      <ItemData ItemOID="IT.CM.CMENRF" Value="AFTER"/>
    </ItemGroupData>
    <ItemGroupData ItemGroupOID="IG.CM" data:ItemGroupDataSeq="9">
      <ItemData ItemOID="IT.STUDYID" Value="CDISC01"/>
      <ItemData ItemOID="IT.CM.DOMAIN" Value="CM"/>
      <ItemData ItemOID="IT.USUBJID" Value="CDISC01.100008"/>
      <ItemData ItemOID="IT.CM.CMSEQ" Value="9"/>
      <ItemData ItemOID="IT.CM.CMTRT" Value="PREVACID"/>
      <ItemData ItemOID="IT.CM.CMDECOD" Value="LANSOPRAZOLE"/>
      <ItemData ItemOID="IT.CM.CMCAT" Value="CONCOMITANT MEDICATIONS"/>
      <ItemData ItemOID="IT.CM.CMINDC" Value="INDIGESTION"/>
      <ItemData ItemOID="IT.CM.CMCLAS" Value="DRUGS FOR ACID RELATED DISORDERS"/>
      <ItemData ItemOID="IT.CM.CMCLASCD" Value="A02"/>
      <ItemData ItemOID="IT.CM.CMDOSTXT" Value="30"/>
      <ItemData ItemOID="IT.CM.CMDOSU" Value="mg"/>
      <ItemData ItemOID="IT.CM.CMDOSFRQ" Value="Q24H"/>
      <ItemData ItemOID="IT.CM.CMROUTE" Value="ORAL"/>
      <ItemData ItemOID="IT.CM.CMSTDTC" Value="1998"/>
      <ItemData ItemOID="IT.CM.CMSTDY" Value="-1580"/>
      <ItemData ItemOID="IT.CM.CMENRF" Value="AFTER"/>
    </ItemGroupData>
    <ItemGroupData ItemGroupOID="IG.CM" data:ItemGroupDataSeq="10">
      <ItemData ItemOID="IT.STUDYID" Value="CDISC01"/>
      <ItemData ItemOID="IT.CM.DOMAIN" Value="CM"/>
      <ItemData ItemOID="IT.USUBJID" Value="CDISC01.100008"/>
      <ItemData ItemOID="IT.CM.CMSEQ" Value="10"/>
      <ItemData ItemOID="IT.CM.CMTRT" Value="ASPIRIN"/>
      <ItemData ItemOID="IT.CM.CMDECOD" Value="ACETYLSALICYLIC ACID"/>
      <ItemData ItemOID="IT.CM.CMCAT" Value="CONCOMITANT MEDICATIONS"/>
      <ItemData ItemOID="IT.CM.CMINDC" Value="PREVENTATIVE"/>
      <ItemData ItemOID="IT.CM.CMCLAS" Value="ANALGESICS"/>
      <ItemData ItemOID="IT.CM.CMCLASCD" Value="N02"/>
      <ItemData ItemOID="IT.CM.CMDOSTXT" Value="81"/>
      <ItemData ItemOID="IT.CM.CMDOSU" Value="mg"/>
      <ItemData ItemOID="IT.CM.CMDOSFRQ" Value="Q24H"/>
      <ItemData ItemOID="IT.CM.CMROUTE" Value="ORAL"/>
      <ItemData ItemOID="IT.CM.CMSTDTC" Value="2000-10"/>
      <ItemData ItemOID="IT.CM.CMSTDY" Value="-910"/>
      <ItemData ItemOID="IT.CM.CMENRF" Value="AFTER"/>
    </ItemGroupData>
    <ItemGroupData ItemGroupOID="IG.CM" data:ItemGroupDataSeq="11">
      <ItemData ItemOID="IT.STUDYID" Value="CDISC01"/>
      <ItemData ItemOID="IT.CM.DOMAIN" Value="CM"/>
      <ItemData ItemOID="IT.USUBJID" Value="CDISC01.100008"/>
      <ItemData ItemOID="IT.CM.CMSEQ" Value="11"/>
      <ItemData ItemOID="IT.CM.CMTRT" Value="LEVOXYL"/>
      <ItemData ItemOID="IT.CM.CMDECOD" Value="LEVOTHYROXINE SODIUM"/>
      <ItemData ItemOID="IT.CM.CMCAT" Value="CONCOMITANT MEDICATIONS"/>
      <ItemData ItemOID="IT.CM.CMINDC" Value="HYPOTHYROIDISM"/>
      <ItemData ItemOID="IT.CM.CMCLAS" Value="THYROID THERAPY"/>
      <ItemData ItemOID="IT.CM.CMCLASCD" Value="H03"/>
      <ItemData ItemOID="IT.CM.CMDOSTXT" Value="50"/>
      <ItemData ItemOID="IT.CM.CMDOSU" Value="mg"/>
      <ItemData ItemOID="IT.CM.CMDOSFRQ" Value="Q24H"/>
      <ItemData ItemOID="IT.CM.CMROUTE" Value="ORAL"/>
      <ItemData ItemOID="IT.CM.CMSTDTC" Value="2002"/>
      <ItemData ItemOID="IT.CM.CMSTDY" Value="-119"/>
      <ItemData ItemOID="IT.CM.CMENRF" Value="AFTER"/>
    </ItemGroupData>
    <ItemGroupData ItemGroupOID="IG.CM" data:ItemGroupDataSeq="12">
      <ItemData ItemOID="IT.STUDYID" Value="CDISC01"/>
      <ItemData ItemOID="IT.CM.DOMAIN" Value="CM"/>
      <ItemData ItemOID="IT.USUBJID" Value="CDISC01.100014"/>
      <ItemData ItemOID="IT.CM.CMSEQ" Value="1"/>
      <ItemData ItemOID="IT.CM.CMTRT" Value="LANSOPRAZOLE"/>
      <ItemData ItemOID="IT.CM.CMDECOD" Value="LANSOPRAZOLE"/>
      <ItemData ItemOID="IT.CM.CMCAT" Value="CONCOMITANT MEDICATIONS"/>
      <ItemData ItemOID="IT.CM.CMINDC" Value="REFLUX"/>
      <ItemData ItemOID="IT.CM.CMCLAS" Value="DRUGS FOR ACID RELATED DISORDERS"/>
      <ItemData ItemOID="IT.CM.CMCLASCD" Value="A02"/>
      <ItemData ItemOID="IT.CM.CMDOSTXT" Value="30"/>
      <ItemData ItemOID="IT.CM.CMDOSU" Value="mg"/>
      <ItemData ItemOID="IT.CM.CMDOSFRQ" Value="Q24H"/>
      <ItemData ItemOID="IT.CM.CMROUTE" Value="ORAL"/>
      <ItemData ItemOID="IT.CM.CMSTDTC" Value="2003-12-31"/>
      <ItemData ItemOID="IT.CM.CMENDTC" Value="2004-02-06"/>
      <ItemData ItemOID="IT.CM.CMSTDY" Value="78"/>
      <ItemData ItemOID="IT.CM.CMENDY" Value="115"/>
    </ItemGroupData>
    <ItemGroupData ItemGroupOID="IG.CM" data:ItemGroupDataSeq="13">
      <ItemData ItemOID="IT.STUDYID" Value="CDISC01"/>
      <ItemData ItemOID="IT.CM.DOMAIN" Value="CM"/>
      <ItemData ItemOID="IT.USUBJID" Value="CDISC01.100014"/>
      <ItemData ItemOID="IT.CM.CMSEQ" Value="2"/>
      <ItemData ItemOID="IT.CM.CMTRT" Value="MIDAZOLAM"/>
      <ItemData ItemOID="IT.CM.CMDECOD" Value="MIDAZOLAM"/>
      <ItemData ItemOID="IT.CM.CMCAT" Value="CONCOMITANT MEDICATIONS"/>
      <ItemData ItemOID="IT.CM.CMINDC" Value="HAVING UPPER ENDOSCOPY"/>
      <ItemData ItemOID="IT.CM.CMCLAS" Value="PSYCHOLEPTICS"/>
      <ItemData ItemOID="IT.CM.CMCLASCD" Value="N05"/>
      <ItemData ItemOID="IT.CM.CMDOSTXT" Value="1"/>
      <ItemData ItemOID="IT.CM.CMDOSU" Value="mg"/>
      <ItemData ItemOID="IT.CM.CMDOSFRQ" Value="ONCE"/>
      <ItemData ItemOID="IT.CM.CMROUTE" Value="INTRAVENOUS"/>
      <ItemData ItemOID="IT.CM.CMSTDTC" Value="2004-02-05"/>
      <ItemData ItemOID="IT.CM.CMENDTC" Value="2004-02-05"/>
      <ItemData ItemOID="IT.CM.CMSTDY" Value="114"/>
      <ItemData ItemOID="IT.CM.CMENDY" Value="114"/>
    </ItemGroupData>
    <ItemGroupData ItemGroupOID="IG.CM" data:ItemGroupDataSeq="14">
      <ItemData ItemOID="IT.STUDYID" Value="CDISC01"/>
      <ItemData ItemOID="IT.CM.DOMAIN" Value="CM"/>
      <ItemData ItemOID="IT.USUBJID" Value="CDISC01.100014"/>
      <ItemData ItemOID="IT.CM.CMSEQ" Value="3"/>
      <ItemData ItemOID="IT.CM.CMTRT" Value="COMPAZINE"/>
      <ItemData ItemOID="IT.CM.CMDECOD" Value="PROCHLORPERAZINE EDISYLATE"/>
      <ItemData ItemOID="IT.CM.CMCAT" Value="CONCOMITANT MEDICATIONS"/>
      <ItemData ItemOID="IT.CM.CMINDC" Value="VOMITING"/>
      <ItemData ItemOID="IT.CM.CMCLAS" Value="ANTIEMETICS AND ANTINAUSEANTS"/>
      <ItemData ItemOID="IT.CM.CMCLASCD" Value="A04"/>
      <ItemData ItemOID="IT.CM.CMDOSTXT" Value="10"/>
      <ItemData ItemOID="IT.CM.CMDOSU" Value="mg"/>
      <ItemData ItemOID="IT.CM.CMDOSFRQ" Value="PRN"/>
      <ItemData ItemOID="IT.CM.CMROUTE" Value="ORAL"/>
      <ItemData ItemOID="IT.CM.CMSTDTC" Value="2004-02-06"/>
      <ItemData ItemOID="IT.CM.CMENDTC" Value="2004-02-08"/>
      <ItemData ItemOID="IT.CM.CMSTDY" Value="115"/>
      <ItemData ItemOID="IT.CM.CMENDY" Value="117"/>
    </ItemGroupData>
    <ItemGroupData ItemGroupOID="IG.CM" data:ItemGroupDataSeq="15">
      <ItemData ItemOID="IT.STUDYID" Value="CDISC01"/>
      <ItemData ItemOID="IT.CM.DOMAIN" Value="CM"/>
      <ItemData ItemOID="IT.USUBJID" Value="CDISC01.100014"/>
      <ItemData ItemOID="IT.CM.CMSEQ" Value="4"/>
      <ItemData ItemOID="IT.CM.CMTRT" Value="PANTOPRAZOLE-SODIUM"/>
      <ItemData ItemOID="IT.CM.CMMODIFY" Value="PANTOPRAZOLE SODIUM"/>
      <ItemData ItemOID="IT.CM.CMDECOD" Value="PANTOPRAZOLE SODIUM"/>
      <ItemData ItemOID="IT.CM.CMCAT" Value="CONCOMITANT MEDICATIONS"/>
      <ItemData ItemOID="IT.CM.CMINDC" Value="REFLUX"/>
      <ItemData ItemOID="IT.CM.CMCLAS" Value="DRUGS FOR ACID RELATED DISORDERS"/>
      <ItemData ItemOID="IT.CM.CMCLASCD" Value="A02"/>
      <ItemData ItemOID="IT.CM.CMDOSTXT" Value="40"/>
      <ItemData ItemOID="IT.CM.CMDOSU" Value="mg"/>
      <ItemData ItemOID="IT.CM.CMDOSFRQ" Value="Q24H"/>
      <ItemData ItemOID="IT.CM.CMROUTE" Value="ORAL"/>
      <ItemData ItemOID="IT.CM.CMSTDTC" Value="2004-02-09"/>
      <ItemData ItemOID="IT.CM.CMSTDY" Value="118"/>
      <ItemData ItemOID="IT.CM.CMENRF" Value="AFTER"/>
    </ItemGroupData>
    <ItemGroupData ItemGroupOID="IG.CM" data:ItemGroupDataSeq="16">
      <ItemData ItemOID="IT.STUDYID" Value="CDISC01"/>
      <ItemData ItemOID="IT.CM.DOMAIN" Value="CM"/>
      <ItemData ItemOID="IT.USUBJID" Value="CDISC01.200001"/>
      <ItemData ItemOID="IT.CM.CMSEQ" Value="1"/>
      <ItemData ItemOID="IT.CM.CMTRT" Value="LEVOTHYROXINE-SODIUM"/>
      <ItemData ItemOID="IT.CM.CMMODIFY" Value="LEVOTHYROXINE SODIUM"/>
      <ItemData ItemOID="IT.CM.CMDECOD" Value="LEVOTHYROXINE SODIUM"/>
      <ItemData ItemOID="IT.CM.CMCAT" Value="CONCOMITANT MEDICATIONS"/>
      <ItemData ItemOID="IT.CM.CMINDC" Value="THYROID HORMONE REPLACEMENT"/>
      <ItemData ItemOID="IT.CM.CMCLAS" Value="THYROID THERAPY"/>
      <ItemData ItemOID="IT.CM.CMCLASCD" Value="H03"/>
      <ItemData ItemOID="IT.CM.CMDOSTXT" Value=".125"/>
      <ItemData ItemOID="IT.CM.CMDOSU" Value="mg"/>
      <ItemData ItemOID="IT.CM.CMDOSFRQ" Value="Q24H"/>
      <ItemData ItemOID="IT.CM.CMROUTE" Value="ORAL"/>
      <ItemData ItemOID="IT.CM.CMSTDTC" Value="1960"/>
      <ItemData ItemOID="IT.CM.CMSTDY" Value="-15613"/>
      <ItemData ItemOID="IT.CM.CMENRF" Value="AFTER"/>
    </ItemGroupData>
    <ItemGroupData ItemGroupOID="IG.CM" data:ItemGroupDataSeq="17">
      <ItemData ItemOID="IT.STUDYID" Value="CDISC01"/>
      <ItemData ItemOID="IT.CM.DOMAIN" Value="CM"/>
      <ItemData ItemOID="IT.USUBJID" Value="CDISC01.200001"/>
      <ItemData ItemOID="IT.CM.CMSEQ" Value="2"/>
      <ItemData ItemOID="IT.CM.CMTRT" Value="CENTRUM"/>
      <ItemData ItemOID="IT.CM.CMDECOD" Value="CENTRUM"/>
      <ItemData ItemOID="IT.CM.CMCAT" Value="CONCOMITANT MEDICATIONS"/>
      <ItemData ItemOID="IT.CM.CMINDC" Value="NUTRITIONAL SUPPLEMENT"/>
      <ItemData ItemOID="IT.CM.CMCLAS" Value="VITAMINS"/>
      <ItemData ItemOID="IT.CM.CMCLASCD" Value="A11"/>
      <ItemData ItemOID="IT.CM.CMDOSTXT" Value="1"/>
      <ItemData ItemOID="IT.CM.CMDOSU" Value="TABLET"/>
      <ItemData ItemOID="IT.CM.CMDOSFRQ" Value="Q24H"/>
      <ItemData ItemOID="IT.CM.CMROUTE" Value="ORAL"/>
      <ItemData ItemOID="IT.CM.CMSTDTC" Value="2001"/>
      <ItemData ItemOID="IT.CM.CMSTDY" Value="-638"/>
      <ItemData ItemOID="IT.CM.CMENRF" Value="AFTER"/>
    </ItemGroupData>
    <ItemGroupData ItemGroupOID="IG.CM" data:ItemGroupDataSeq="18">
      <ItemData ItemOID="IT.STUDYID" Value="CDISC01"/>
      <ItemData ItemOID="IT.CM.DOMAIN" Value="CM"/>
      <ItemData ItemOID="IT.USUBJID" Value="CDISC01.200001"/>
      <ItemData ItemOID="IT.CM.CMSEQ" Value="3"/>
      <ItemData ItemOID="IT.CM.CMTRT" Value="GARLIC"/>
      <ItemData ItemOID="IT.CM.CMDECOD" Value="GARLIC"/>
      <ItemData ItemOID="IT.CM.CMCAT" Value="CONCOMITANT MEDICATIONS"/>
      <ItemData ItemOID="IT.CM.CMINDC" Value="NUTRITIONAL SUPPLEMENT"/>
      <ItemData ItemOID="IT.CM.CMCLAS" Value="ALL OTHER THERAPEUTIC PRODUCTS"/>
      <ItemData ItemOID="IT.CM.CMCLASCD" Value="V03"/>
      <ItemData ItemOID="IT.CM.CMDOSTXT" Value="1"/>
      <ItemData ItemOID="IT.CM.CMDOSU" Value="TABLET"/>
      <ItemData ItemOID="IT.CM.CMDOSFRQ" Value="Q24H"/>
      <ItemData ItemOID="IT.CM.CMROUTE" Value="ORAL"/>
      <ItemData ItemOID="IT.CM.CMSTDTC" Value="2001"/>
      <ItemData ItemOID="IT.CM.CMSTDY" Value="-638"/>
      <ItemData ItemOID="IT.CM.CMENRF" Value="AFTER"/>
    </ItemGroupData>
    <ItemGroupData ItemGroupOID="IG.CM" data:ItemGroupDataSeq="19">
      <ItemData ItemOID="IT.STUDYID" Value="CDISC01"/>
      <ItemData ItemOID="IT.CM.DOMAIN" Value="CM"/>
      <ItemData ItemOID="IT.USUBJID" Value="CDISC01.200001"/>
      <ItemData ItemOID="IT.CM.CMSEQ" Value="4"/>
      <ItemData ItemOID="IT.CM.CMTRT" Value="GINKO BILOBA"/>
      <ItemData ItemOID="IT.CM.CMDECOD" Value="GINKGO BILOBA"/>
      <ItemData ItemOID="IT.CM.CMCAT" Value="CONCOMITANT MEDICATIONS"/>
      <ItemData ItemOID="IT.CM.CMINDC" Value="NUTRITIONAL SUPPLEMENT"/>
      <ItemData ItemOID="IT.CM.CMCLAS" Value="ALL OTHER THERAPEUTIC PRODUCTS"/>
      <ItemData ItemOID="IT.CM.CMCLASCD" Value="V03"/>
      <ItemData ItemOID="IT.CM.CMDOSTXT" Value="1"/>
      <ItemData ItemOID="IT.CM.CMDOSU" Value="TABLET"/>
      <ItemData ItemOID="IT.CM.CMDOSFRQ" Value="Q24H"/>
      <ItemData ItemOID="IT.CM.CMROUTE" Value="ORAL"/>
      <ItemData ItemOID="IT.CM.CMSTDTC" Value="2001"/>
      <ItemData ItemOID="IT.CM.CMSTDY" Value="-638"/>
      <ItemData ItemOID="IT.CM.CMENRF" Value="AFTER"/>
    </ItemGroupData>
    <ItemGroupData ItemGroupOID="IG.CM" data:ItemGroupDataSeq="20">
      <ItemData ItemOID="IT.STUDYID" Value="CDISC01"/>
      <ItemData ItemOID="IT.CM.DOMAIN" Value="CM"/>
      <ItemData ItemOID="IT.USUBJID" Value="CDISC01.200001"/>
      <ItemData ItemOID="IT.CM.CMSEQ" Value="5"/>
      <ItemData ItemOID="IT.CM.CMTRT" Value="OSCAL"/>
      <ItemData ItemOID="IT.CM.CMDECOD" Value="CALCIUM CARBONATE"/>
      <ItemData ItemOID="IT.CM.CMCAT" Value="CONCOMITANT MEDICATIONS"/>
      <ItemData ItemOID="IT.CM.CMINDC" Value="NUTRITIONAL SUPPLEMENT"/>
      <ItemData ItemOID="IT.CM.CMCLAS" Value="MINERAL SUPPLEMENTS"/>
      <ItemData ItemOID="IT.CM.CMCLASCD" Value="A12"/>
      <ItemData ItemOID="IT.CM.CMDOSTXT" Value="1"/>
      <ItemData ItemOID="IT.CM.CMDOSU" Value="TABLET"/>
      <ItemData ItemOID="IT.CM.CMDOSFRQ" Value="Q24H"/>
      <ItemData ItemOID="IT.CM.CMROUTE" Value="ORAL"/>
      <ItemData ItemOID="IT.CM.CMSTDTC" Value="2001"/>
      <ItemData ItemOID="IT.CM.CMSTDY" Value="-638"/>
      <ItemData ItemOID="IT.CM.CMENRF" Value="AFTER"/>
    </ItemGroupData>
    <ItemGroupData ItemGroupOID="IG.CM" data:ItemGroupDataSeq="21">
      <ItemData ItemOID="IT.STUDYID" Value="CDISC01"/>
      <ItemData ItemOID="IT.CM.DOMAIN" Value="CM"/>
      <ItemData ItemOID="IT.USUBJID" Value="CDISC01.200001"/>
      <ItemData ItemOID="IT.CM.CMSEQ" Value="6"/>
      <ItemData ItemOID="IT.CM.CMTRT" Value="VITAMIN &quot;E&quot;"/>
      <ItemData ItemOID="IT.CM.CMMODIFY" Value="VITAMIN E"/>
      <ItemData ItemOID="IT.CM.CMDECOD" Value="TOCOPHEROL"/>
      <ItemData ItemOID="IT.CM.CMCAT" Value="CONCOMITANT MEDICATIONS"/>
      <ItemData ItemOID="IT.CM.CMINDC" Value="NUTRITIONAL SUPPLEMENT"/>
      <ItemData ItemOID="IT.CM.CMCLAS" Value="VITAMINS"/>
      <ItemData ItemOID="IT.CM.CMCLASCD" Value="A11"/>
      <ItemData ItemOID="IT.CM.CMDOSTXT" Value="400"/>
      <ItemData ItemOID="IT.CM.CMDOSU" Value="IU"/>
      <ItemData ItemOID="IT.CM.CMDOSFRQ" Value="Q24H"/>
      <ItemData ItemOID="IT.CM.CMROUTE" Value="ORAL"/>
      <ItemData ItemOID="IT.CM.CMSTDTC" Value="2001"/>
      <ItemData ItemOID="IT.CM.CMSTDY" Value="-638"/>
      <ItemData ItemOID="IT.CM.CMENRF" Value="AFTER"/>
    </ItemGroupData>
    <ItemGroupData ItemGroupOID="IG.CM" data:ItemGroupDataSeq="22">
      <ItemData ItemOID="IT.STUDYID" Value="CDISC01"/>
      <ItemData ItemOID="IT.CM.DOMAIN" Value="CM"/>
      <ItemData ItemOID="IT.USUBJID" Value="CDISC01.200001"/>
      <ItemData ItemOID="IT.CM.CMSEQ" Value="7"/>
      <ItemData ItemOID="IT.CM.CMTRT" Value="DONEPEZIL-HYDROCHLORIDE"/>
      <ItemData ItemOID="IT.CM.CMMODIFY" Value="DONEPEZIL HYDROCHLORIDE"/>
      <ItemData ItemOID="IT.CM.CMDECOD" Value="DONEPEZIL HYDROCHLORIDE"/>
      <ItemData ItemOID="IT.CM.CMCAT" Value="PSYCHOTROPHIC DRUG TREATMENT HISTORY"/>
      <ItemData ItemOID="IT.CM.CMINDC" Value="ALZHEIMER&apos;S DISEASE"/>
      <ItemData ItemOID="IT.CM.CMCLAS" Value="PSYCHOANALEPTICS"/>
      <ItemData ItemOID="IT.CM.CMCLASCD" Value="N06"/>
      <ItemData ItemOID="IT.CM.CMDOSTXT" Value="5"/>
      <ItemData ItemOID="IT.CM.CMDOSU" Value="mg"/>
      <ItemData ItemOID="IT.CM.CMDOSFRQ" Value="Q24H"/>
      <ItemData ItemOID="IT.CM.CMROUTE" Value="ORAL"/>
      <ItemData ItemOID="IT.CM.CMSTDTC" Value="2001-09-01"/>
      <ItemData ItemOID="IT.CM.CMENDTC" Value="2001-09-15"/>
      <ItemData ItemOID="IT.CM.CMSTDY" Value="-759"/>
      <ItemData ItemOID="IT.CM.CMENDY" Value="-745"/>
    </ItemGroupData>
    <ItemGroupData ItemGroupOID="IG.CM" data:ItemGroupDataSeq="23">
      <ItemData ItemOID="IT.STUDYID" Value="CDISC01"/>
      <ItemData ItemOID="IT.CM.DOMAIN" Value="CM"/>
      <ItemData ItemOID="IT.USUBJID" Value="CDISC01.200001"/>
      <ItemData ItemOID="IT.CM.CMSEQ" Value="8"/>
      <ItemData ItemOID="IT.CM.CMTRT" Value="RIVASTIGMINE TARTRATE"/>
      <ItemData ItemOID="IT.CM.CMDECOD" Value="RIVASTIGMINE TARTRATE"/>
      <ItemData ItemOID="IT.CM.CMCAT" Value="PSYCHOTROPHIC DRUG TREATMENT HISTORY"/>
      <ItemData ItemOID="IT.CM.CMINDC" Value="ALZHEIMER&apos;S DISEASE"/>
      <ItemData ItemOID="IT.CM.CMCLAS" Value="PSYCHOANALEPTICS"/>
      <ItemData ItemOID="IT.CM.CMCLASCD" Value="N06"/>
      <ItemData ItemOID="IT.CM.CMDOSTXT" Value="2.5"/>
      <ItemData ItemOID="IT.CM.CMDOSU" Value="mg"/>
      <ItemData ItemOID="IT.CM.CMDOSFRQ" Value="BID"/>
      <ItemData ItemOID="IT.CM.CMROUTE" Value="ORAL"/>
      <ItemData ItemOID="IT.CM.CMSTDTC" Value="2001-09-16"/>
      <ItemData ItemOID="IT.CM.CMENDTC" Value="2001-09-22"/>
      <ItemData ItemOID="IT.CM.CMSTDY" Value="-744"/>
      <ItemData ItemOID="IT.CM.CMENDY" Value="-738"/>
    </ItemGroupData>
    <ItemGroupData ItemGroupOID="IG.CM" data:ItemGroupDataSeq="24">
      <ItemData ItemOID="IT.STUDYID" Value="CDISC01"/>
      <ItemData ItemOID="IT.CM.DOMAIN" Value="CM"/>
      <ItemData ItemOID="IT.USUBJID" Value="CDISC01.200001"/>
      <ItemData ItemOID="IT.CM.CMSEQ" Value="9"/>
      <ItemData ItemOID="IT.CM.CMTRT" Value="RISPERIDONE"/>
      <ItemData ItemOID="IT.CM.CMDECOD" Value="RISPERIDONE"/>
      <ItemData ItemOID="IT.CM.CMCAT" Value="PSYCHOTROPHIC DRUG TREATMENT HISTORY"/>
      <ItemData ItemOID="IT.CM.CMINDC" Value="INSOMNIA"/>
      <ItemData ItemOID="IT.CM.CMCLAS" Value="PSYCHOLEPTICS"/>
      <ItemData ItemOID="IT.CM.CMCLASCD" Value="N05"/>
      <ItemData ItemOID="IT.CM.CMDOSTXT" Value="1"/>
      <ItemData ItemOID="IT.CM.CMDOSU" Value="mg"/>
      <ItemData ItemOID="IT.CM.CMDOSFRQ" Value="BID"/>
      <ItemData ItemOID="IT.CM.CMROUTE" Value="ORAL"/>
      <ItemData ItemOID="IT.CM.CMSTDTC" Value="2003-06"/>
      <ItemData ItemOID="IT.CM.CMENDTC" Value="2003-06"/>
      <ItemData ItemOID="IT.CM.CMSTDY" Value="-92"/>
      <ItemData ItemOID="IT.CM.CMENDY" Value="-92"/>
    </ItemGroupData>
    <ItemGroupData ItemGroupOID="IG.CM" data:ItemGroupDataSeq="25">
      <ItemData ItemOID="IT.STUDYID" Value="CDISC01"/>
      <ItemData ItemOID="IT.CM.DOMAIN" Value="CM"/>
      <ItemData ItemOID="IT.USUBJID" Value="CDISC01.200001"/>
      <ItemData ItemOID="IT.CM.CMSEQ" Value="10"/>
      <ItemData ItemOID="IT.CM.CMTRT" Value="TRAZODONE-HYDROCHLORIDE"/>
      <ItemData ItemOID="IT.CM.CMMODIFY" Value="TRAZODONE HYDROCHLORIDE"/>
      <ItemData ItemOID="IT.CM.CMDECOD" Value="TRAZODONE HYDROCHLORIDE"/>
      <ItemData ItemOID="IT.CM.CMCAT" Value="PSYCHOTROPHIC DRUG TREATMENT HISTORY"/>
      <ItemData ItemOID="IT.CM.CMINDC" Value="INSOMNIA"/>
      <ItemData ItemOID="IT.CM.CMCLAS" Value="PSYCHOANALEPTICS"/>
      <ItemData ItemOID="IT.CM.CMCLASCD" Value="N06"/>
      <ItemData ItemOID="IT.CM.CMDOSTXT" Value="25"/>
      <ItemData ItemOID="IT.CM.CMDOSU" Value="mg"/>
      <ItemData ItemOID="IT.CM.CMDOSFRQ" Value="Q24H"/>
      <ItemData ItemOID="IT.CM.CMROUTE" Value="ORAL"/>
      <ItemData ItemOID="IT.CM.CMSTDTC" Value="2003-06"/>
      <ItemData ItemOID="IT.CM.CMENDTC" Value="2003-08-26"/>
      <ItemData ItemOID="IT.CM.CMSTDY" Value="-92"/>
      <ItemData ItemOID="IT.CM.CMENDY" Value="-35"/>
    </ItemGroupData>
    <ItemGroupData ItemGroupOID="IG.CM" data:ItemGroupDataSeq="26">
      <ItemData ItemOID="IT.STUDYID" Value="CDISC01"/>
      <ItemData ItemOID="IT.CM.DOMAIN" Value="CM"/>
      <ItemData ItemOID="IT.USUBJID" Value="CDISC01.200001"/>
      <ItemData ItemOID="IT.CM.CMSEQ" Value="11"/>
      <ItemData ItemOID="IT.CM.CMTRT" Value="ZOLPIDEM TARTRATE"/>
      <ItemData ItemOID="IT.CM.CMDECOD" Value="ZOLPIDEM TARTRATE"/>
      <ItemData ItemOID="IT.CM.CMCAT" Value="CONCOMITANT MEDICATIONS"/>
      <ItemData ItemOID="IT.CM.CMINDC" Value="INSOMNIA"/>
      <ItemData ItemOID="IT.CM.CMCLAS" Value="PSYCHOLEPTICS"/>
      <ItemData ItemOID="IT.CM.CMCLASCD" Value="N05"/>
      <ItemData ItemOID="IT.CM.CMDOSTXT" Value="2.5"/>
      <ItemData ItemOID="IT.CM.CMDOSU" Value="mg"/>
      <ItemData ItemOID="IT.CM.CMDOSFRQ" Value="Q24H"/>
      <ItemData ItemOID="IT.CM.CMROUTE" Value="ORAL"/>
      <ItemData ItemOID="IT.CM.CMSTDTC" Value="2003-10-16"/>
      <ItemData ItemOID="IT.CM.CMENDTC" Value="2003-10-17"/>
      <ItemData ItemOID="IT.CM.CMSTDY" Value="17"/>
      <ItemData ItemOID="IT.CM.CMENDY" Value="18"/>
    </ItemGroupData>
    <ItemGroupData ItemGroupOID="IG.CM" data:ItemGroupDataSeq="27">
      <ItemData ItemOID="IT.STUDYID" Value="CDISC01"/>
      <ItemData ItemOID="IT.CM.DOMAIN" Value="CM"/>
      <ItemData ItemOID="IT.USUBJID" Value="CDISC01.200001"/>
      <ItemData ItemOID="IT.CM.CMSEQ" Value="12"/>
      <ItemData ItemOID="IT.CM.CMTRT" Value="ZOLPIDEM TARTRATE"/>
      <ItemData ItemOID="IT.CM.CMDECOD" Value="ZOLPIDEM TARTRATE"/>
      <ItemData ItemOID="IT.CM.CMCAT" Value="CONCOMITANT MEDICATIONS"/>
      <ItemData ItemOID="IT.CM.CMINDC" Value="INSOMNIA"/>
      <ItemData ItemOID="IT.CM.CMCLAS" Value="PSYCHOLEPTICS"/>
      <ItemData ItemOID="IT.CM.CMCLASCD" Value="N05"/>
      <ItemData ItemOID="IT.CM.CMDOSTXT" Value="5"/>
      <ItemData ItemOID="IT.CM.CMDOSU" Value="mg"/>
      <ItemData ItemOID="IT.CM.CMDOSFRQ" Value="Q24H"/>
      <ItemData ItemOID="IT.CM.CMROUTE" Value="ORAL"/>
      <ItemData ItemOID="IT.CM.CMSTDTC" Value="2003-10-19"/>
      <ItemData ItemOID="IT.CM.CMENDTC" Value="2003-10-19"/>
      <ItemData ItemOID="IT.CM.CMSTDY" Value="20"/>
      <ItemData ItemOID="IT.CM.CMENDY" Value="20"/>
    </ItemGroupData>
    <ItemGroupData ItemGroupOID="IG.CM" data:ItemGroupDataSeq="28">
      <ItemData ItemOID="IT.STUDYID" Value="CDISC01"/>
      <ItemData ItemOID="IT.CM.DOMAIN" Value="CM"/>
      <ItemData ItemOID="IT.USUBJID" Value="CDISC01.200001"/>
      <ItemData ItemOID="IT.CM.CMSEQ" Value="13"/>
      <ItemData ItemOID="IT.CM.CMTRT" Value="INFLUENZA VACCINE"/>
      <ItemData ItemOID="IT.CM.CMDECOD" Value="INFLUENZA VACCINE"/>
      <ItemData ItemOID="IT.CM.CMCAT" Value="CONCOMITANT MEDICATIONS"/>
      <ItemData ItemOID="IT.CM.CMINDC" Value="INFLUENZA PROPHYLAXIS"/>
      <ItemData ItemOID="IT.CM.CMCLAS" Value="VACCINES"/>
      <ItemData ItemOID="IT.CM.CMCLASCD" Value="J07"/>
      <ItemData ItemOID="IT.CM.CMDOSTXT" Value="1"/>
      <ItemData ItemOID="IT.CM.CMDOSU" Value="VIAL"/>
      <ItemData ItemOID="IT.CM.CMDOSFRQ" Value="ONCE"/>
      <ItemData ItemOID="IT.CM.CMROUTE" Value="SUBCUTANEOUS"/>
      <ItemData ItemOID="IT.CM.CMSTDTC" Value="2003-11-07"/>
      <ItemData ItemOID="IT.CM.CMENDTC" Value="2003-11-07"/>
      <ItemData ItemOID="IT.CM.CMSTDY" Value="39"/>
      <ItemData ItemOID="IT.CM.CMENDY" Value="39"/>
    </ItemGroupData>
    <ItemGroupData ItemGroupOID="IG.CM" data:ItemGroupDataSeq="29">
      <ItemData ItemOID="IT.STUDYID" Value="CDISC01"/>
      <ItemData ItemOID="IT.CM.DOMAIN" Value="CM"/>
      <ItemData ItemOID="IT.USUBJID" Value="CDISC01.200001"/>
      <ItemData ItemOID="IT.CM.CMSEQ" Value="14"/>
      <ItemData ItemOID="IT.CM.CMTRT" Value="ALKA SELTZER PLUS"/>
      <ItemData ItemOID="IT.CM.CMDECOD" Value="ALKA-SELTZER PLUS"/>
      <ItemData ItemOID="IT.CM.CMCAT" Value="CONCOMITANT MEDICATIONS"/>
      <ItemData ItemOID="IT.CM.CMINDC" Value="COLD PROPHYLAXIS"/>
      <ItemData ItemOID="IT.CM.CMCLAS" Value="COUGH AND COLD PREPARATIONS"/>
      <ItemData ItemOID="IT.CM.CMCLASCD" Value="R05"/>
      <ItemData ItemOID="IT.CM.CMDOSTXT" Value="2"/>
      <ItemData ItemOID="IT.CM.CMDOSU" Value="TABLET"/>
      <ItemData ItemOID="IT.CM.CMDOSFRQ" Value="Q24H"/>
      <ItemData ItemOID="IT.CM.CMROUTE" Value="ORAL"/>
      <ItemData ItemOID="IT.CM.CMSTDTC" Value="2003-11-11"/>
      <ItemData ItemOID="IT.CM.CMENDTC" Value="2003-11-11"/>
      <ItemData ItemOID="IT.CM.CMSTDY" Value="43"/>
      <ItemData ItemOID="IT.CM.CMENDY" Value="43"/>
    </ItemGroupData>
    <ItemGroupData ItemGroupOID="IG.CM" data:ItemGroupDataSeq="30">
      <ItemData ItemOID="IT.STUDYID" Value="CDISC01"/>
      <ItemData ItemOID="IT.CM.DOMAIN" Value="CM"/>
      <ItemData ItemOID="IT.USUBJID" Value="CDISC01.200002"/>
      <ItemData ItemOID="IT.CM.CMSEQ" Value="1"/>
      <ItemData ItemOID="IT.CM.CMTRT" Value="DONEPEZIL-HYDROCHLORIDE"/>
      <ItemData ItemOID="IT.CM.CMMODIFY" Value="DONEPEZIL HYDROCHLORIDE"/>
      <ItemData ItemOID="IT.CM.CMDECOD" Value="DONEPEZIL HYDROCHLORIDE"/>
      <ItemData ItemOID="IT.CM.CMCAT" Value="CONCOMITANT MEDICATIONS"/>
      <ItemData ItemOID="IT.CM.CMINDC" Value="ALZHEIMER&apos;S DISEASE"/>
      <ItemData ItemOID="IT.CM.CMCLAS" Value="PSYCHOANALEPTICS"/>
      <ItemData ItemOID="IT.CM.CMCLASCD" Value="N06"/>
      <ItemData ItemOID="IT.CM.CMDOSTXT" Value="10"/>
      <ItemData ItemOID="IT.CM.CMDOSU" Value="mg"/>
      <ItemData ItemOID="IT.CM.CMDOSFRQ" Value="Q24H"/>
      <ItemData ItemOID="IT.CM.CMROUTE" Value="ORAL"/>
      <ItemData ItemOID="IT.CM.CMSTDTC" Value="2001-12"/>
      <ItemData ItemOID="IT.CM.CMENDTC" Value="2003-09-04"/>
      <ItemData ItemOID="IT.CM.CMSTDY" Value="-648"/>
      <ItemData ItemOID="IT.CM.CMENDY" Value="-36"/>
    </ItemGroupData>
    <ItemGroupData ItemGroupOID="IG.CM" data:ItemGroupDataSeq="31">
      <ItemData ItemOID="IT.STUDYID" Value="CDISC01"/>
      <ItemData ItemOID="IT.CM.DOMAIN" Value="CM"/>
      <ItemData ItemOID="IT.USUBJID" Value="CDISC01.200002"/>
      <ItemData ItemOID="IT.CM.CMSEQ" Value="2"/>
      <ItemData ItemOID="IT.CM.CMTRT" Value="DONEPEZIL-HYDROCHLORIDE"/>
      <ItemData ItemOID="IT.CM.CMMODIFY" Value="DONEPEZIL HYDROCHLORIDE"/>
      <ItemData ItemOID="IT.CM.CMDECOD" Value="DONEPEZIL"/>
      <ItemData ItemOID="IT.CM.CMCAT" Value="PSYCHOTROPHIC DRUG TREATMENT HISTORY"/>
      <ItemData ItemOID="IT.CM.CMINDC" Value="ALZHEIMERS DISEASE"/>
      <ItemData ItemOID="IT.CM.CMCLAS" Value="PSYCHOANALEPTICS"/>
      <ItemData ItemOID="IT.CM.CMCLASCD" Value="N06"/>
      <ItemData ItemOID="IT.CM.CMDOSTXT" Value="10"/>
      <ItemData ItemOID="IT.CM.CMDOSU" Value="mg"/>
      <ItemData ItemOID="IT.CM.CMDOSFRQ" Value="Q24H"/>
      <ItemData ItemOID="IT.CM.CMROUTE" Value="ORAL"/>
      <ItemData ItemOID="IT.CM.CMSTDTC" Value="2001-12"/>
      <ItemData ItemOID="IT.CM.CMENDTC" Value="2003-09-04"/>
      <ItemData ItemOID="IT.CM.CMSTDY" Value="-648"/>
      <ItemData ItemOID="IT.CM.CMENDY" Value="-36"/>
    </ItemGroupData>
    <ItemGroupData ItemGroupOID="IG.CM" data:ItemGroupDataSeq="32">
      <ItemData ItemOID="IT.STUDYID" Value="CDISC01"/>
      <ItemData ItemOID="IT.CM.DOMAIN" Value="CM"/>
      <ItemData ItemOID="IT.USUBJID" Value="CDISC01.200002"/>
      <ItemData ItemOID="IT.CM.CMSEQ" Value="3"/>
      <ItemData ItemOID="IT.CM.CMTRT" Value="MULTIVITAMIN"/>
      <ItemData ItemOID="IT.CM.CMDECOD" Value="MULTIVITAMINS"/>
      <ItemData ItemOID="IT.CM.CMCAT" Value="CONCOMITANT MEDICATIONS"/>
      <ItemData ItemOID="IT.CM.CMINDC" Value="NUTRITIONAL SUPPLEMENT"/>
      <ItemData ItemOID="IT.CM.CMCLAS" Value="VITAMINS"/>
      <ItemData ItemOID="IT.CM.CMCLASCD" Value="A11"/>
      <ItemData ItemOID="IT.CM.CMDOSTXT" Value="1"/>
      <ItemData ItemOID="IT.CM.CMDOSU" Value="TABLET"/>
      <ItemData ItemOID="IT.CM.CMDOSFRQ" Value="Q24H"/>
      <ItemData ItemOID="IT.CM.CMROUTE" Value="ORAL"/>
      <ItemData ItemOID="IT.CM.CMSTDTC" Value="2003-06"/>
      <ItemData ItemOID="IT.CM.CMSTDY" Value="-102"/>
      <ItemData ItemOID="IT.CM.CMENRF" Value="AFTER"/>
    </ItemGroupData>
    <ItemGroupData ItemGroupOID="IG.CM" data:ItemGroupDataSeq="33">
      <ItemData ItemOID="IT.STUDYID" Value="CDISC01"/>
      <ItemData ItemOID="IT.CM.DOMAIN" Value="CM"/>
      <ItemData ItemOID="IT.USUBJID" Value="CDISC01.200002"/>
      <ItemData ItemOID="IT.CM.CMSEQ" Value="4"/>
      <ItemData ItemOID="IT.CM.CMTRT" Value="INFLUENZA VACCINE"/>
      <ItemData ItemOID="IT.CM.CMDECOD" Value="INFLUENZA VACCINE"/>
      <ItemData ItemOID="IT.CM.CMCAT" Value="CONCOMITANT MEDICATIONS"/>
      <ItemData ItemOID="IT.CM.CMINDC" Value="INFLUENZA PROPHYLAXIS"/>
      <ItemData ItemOID="IT.CM.CMCLAS" Value="VACCINES"/>
      <ItemData ItemOID="IT.CM.CMCLASCD" Value="J07"/>
      <ItemData ItemOID="IT.CM.CMDOSTXT" Value="1"/>
      <ItemData ItemOID="IT.CM.CMDOSU" Value="VIAL"/>
      <ItemData ItemOID="IT.CM.CMDOSFRQ" Value="ONCE"/>
      <ItemData ItemOID="IT.CM.CMROUTE" Value="SUBCUTANEOUS"/>
      <ItemData ItemOID="IT.CM.CMSTDTC" Value="2003-11-15"/>
      <ItemData ItemOID="IT.CM.CMENDTC" Value="2003-11-15"/>
      <ItemData ItemOID="IT.CM.CMSTDY" Value="37"/>
      <ItemData ItemOID="IT.CM.CMENDY" Value="37"/>
    </ItemGroupData>
    <ItemGroupData ItemGroupOID="IG.CM" data:ItemGroupDataSeq="34">
      <ItemData ItemOID="IT.STUDYID" Value="CDISC01"/>
      <ItemData ItemOID="IT.CM.DOMAIN" Value="CM"/>
      <ItemData ItemOID="IT.USUBJID" Value="CDISC01.200005"/>
      <ItemData ItemOID="IT.CM.CMSEQ" Value="1"/>
      <ItemData ItemOID="IT.CM.CMTRT" Value="DONEPEZIL-HYDROCHLORIDE"/>
      <ItemData ItemOID="IT.CM.CMMODIFY" Value="DONEPEZIL HYDROCHLORIDE"/>
      <ItemData ItemOID="IT.CM.CMDECOD" Value="DONEPEZIL"/>
      <ItemData ItemOID="IT.CM.CMCAT" Value="CONCOMITANT MEDICATIONS"/>
      <ItemData ItemOID="IT.CM.CMINDC" Value="ALZHEIMER&apos;S DISEASE"/>
      <ItemData ItemOID="IT.CM.CMCLAS" Value="PSYCHOANALEPTICS"/>
      <ItemData ItemOID="IT.CM.CMCLASCD" Value="N06"/>
      <ItemData ItemOID="IT.CM.CMDOSTXT" Value="UNK"/>
      <ItemData ItemOID="IT.CM.CMDOSU" Value="mg"/>
      <ItemData ItemOID="IT.CM.CMDOSFRQ" Value="Q24H"/>
      <ItemData ItemOID="IT.CM.CMROUTE" Value="ORAL"/>
      <ItemData ItemOID="IT.CM.CMSTDTC" Value="2001"/>
      <ItemData ItemOID="IT.CM.CMENDTC" Value="2003-09-14"/>
    </ItemGroupData>
    <ItemGroupData ItemGroupOID="IG.CM" data:ItemGroupDataSeq="35">
      <ItemData ItemOID="IT.STUDYID" Value="CDISC01"/>
      <ItemData ItemOID="IT.CM.DOMAIN" Value="CM"/>
      <ItemData ItemOID="IT.USUBJID" Value="CDISC01.200005"/>
      <ItemData ItemOID="IT.CM.CMSEQ" Value="2"/>
      <ItemData ItemOID="IT.CM.CMTRT" Value="CALCIUM"/>
      <ItemData ItemOID="IT.CM.CMDECOD" Value="CALCIUM"/>
      <ItemData ItemOID="IT.CM.CMCAT" Value="CONCOMITANT MEDICATIONS"/>
      <ItemData ItemOID="IT.CM.CMINDC" Value="NUTRITIONAL SUPPLEMENT"/>
      <ItemData ItemOID="IT.CM.CMCLAS" Value="MINERAL SUPPLEMENTS"/>
      <ItemData ItemOID="IT.CM.CMCLASCD" Value="A12"/>
      <ItemData ItemOID="IT.CM.CMDOSTXT" Value="1"/>
      <ItemData ItemOID="IT.CM.CMDOSU" Value="TABLET"/>
      <ItemData ItemOID="IT.CM.CMDOSFRQ" Value="Q24H"/>
      <ItemData ItemOID="IT.CM.CMROUTE" Value="ORAL"/>
      <ItemData ItemOID="IT.CM.CMSTDTC" Value="2002"/>
      <ItemData ItemOID="IT.CM.CMENRF" Value="AFTER"/>
    </ItemGroupData>
    <ItemGroupData ItemGroupOID="IG.CM" data:ItemGroupDataSeq="36">
      <ItemData ItemOID="IT.STUDYID" Value="CDISC01"/>
      <ItemData ItemOID="IT.CM.DOMAIN" Value="CM"/>
      <ItemData ItemOID="IT.USUBJID" Value="CDISC01.200005"/>
      <ItemData ItemOID="IT.CM.CMSEQ" Value="3"/>
      <ItemData ItemOID="IT.CM.CMTRT" Value="IBUPROFEN"/>
      <ItemData ItemOID="IT.CM.CMDECOD" Value="IBUPROFEN"/>
      <ItemData ItemOID="IT.CM.CMCAT" Value="CONCOMITANT MEDICATIONS"/>
      <ItemData ItemOID="IT.CM.CMINDC" Value="BACK PAIN"/>
      <ItemData ItemOID="IT.CM.CMCLAS" Value="ANTIINFLAMMATORY AND ANTIRHEUMATIC PRODUCTS"/>
      <ItemData ItemOID="IT.CM.CMCLASCD" Value="M01"/>
      <ItemData ItemOID="IT.CM.CMDOSTXT" Value="400"/>
      <ItemData ItemOID="IT.CM.CMDOSU" Value="mg"/>
      <ItemData ItemOID="IT.CM.CMDOSFRQ" Value="PRN"/>
      <ItemData ItemOID="IT.CM.CMROUTE" Value="ORAL"/>
      <ItemData ItemOID="IT.CM.CMSTDTC" Value="2002"/>
      <ItemData ItemOID="IT.CM.CMENRF" Value="AFTER"/>
    </ItemGroupData>
  </ClinicalData>
</ODM>
