<?xml version="1.0" encoding="UTF-8"?>
<!-- Dataset-XML: Untyped Data Example  --> 
<!-- Built from the SAS XPT files published with the SDTM-MSG (SDTM Metadata Submission Guidelines) V1 --> 
<!-- Prepared by Marcelina Hungria / DIcore Group, LLC --> 
<ODM
  xmlns="http://www.cdisc.org/ns/odm/v1.3"
  xmlns:xlink="http://www.w3.org/1999/xlink" 
  xmlns:data="http://www.cdisc.org/ns/Dataset-XML/v1.0"
  FileType="Snapshot"
  ODMVersion="1.3.2"
  data:DatasetXMLVersion="1.0.0"
  FileOID="www.cdisc.org.Studycdisc01-Define-XML_2.0.0(IG.DA)"
  PriorFileOID="www.cdisc.org.Studycdisc01-Define-XML_2.0.0"
  Originator="CDISC Dataset-XML Team"
  CreationDateTime="2014-04-01T09:31:03">
  <ClinicalData
    StudyOID="cdisc01"
    MetaDataVersionOID="MDV.CDISC01.SDTMIG.3.1.2.SDTM.1.2">
    <!-- Dataset (DA) -->
    <ItemGroupData ItemGroupOID="IG.DA" data:ItemGroupDataSeq="1">
      <ItemData ItemOID="IT.STUDYID" Value="CDISC01"/>
      <ItemData ItemOID="IT.DA.DOMAIN" Value="DA"/>
      <ItemData ItemOID="IT.USUBJID" Value="CDISC01.100008"/>
      <ItemData ItemOID="IT.DA.DASEQ" Value="1"/>
      <ItemData ItemOID="IT.DA.DATESTCD" Value="DISPAMT"/>
      <ItemData ItemOID="IT.DA.DATEST" Value="Dispensed Amount"/>
      <ItemData ItemOID="IT.DA.DAORRES" Value="40"/>
      <ItemData ItemOID="IT.DA.DAORRESU" Value="TABLET"/>
      <ItemData ItemOID="IT.DA.DASTRESC" Value="40"/>
      <ItemData ItemOID="IT.DA.DASTRESN" Value="40"/>
      <ItemData ItemOID="IT.DA.DASTRESU" Value="TABLET"/>
      <ItemData ItemOID="IT.DA.VISITNUM" Value="2"/>
      <ItemData ItemOID="IT.DA.VISIT" Value="BASELINE"/>
      <ItemData ItemOID="IT.DA.VISITDY" Value="1"/>
      <ItemData ItemOID="IT.DA.DADTC" Value="2003-04-29"/>
      <ItemData ItemOID="IT.DA.DADY" Value="1"/>
    </ItemGroupData>
    <ItemGroupData ItemGroupOID="IG.DA" data:ItemGroupDataSeq="2">
      <ItemData ItemOID="IT.STUDYID" Value="CDISC01"/>
      <ItemData ItemOID="IT.DA.DOMAIN" Value="DA"/>
      <ItemData ItemOID="IT.USUBJID" Value="CDISC01.100008"/>
      <ItemData ItemOID="IT.DA.DASEQ" Value="2"/>
      <ItemData ItemOID="IT.DA.DATESTCD" Value="DISPAMT"/>
      <ItemData ItemOID="IT.DA.DATEST" Value="Dispensed Amount"/>
      <ItemData ItemOID="IT.DA.DAORRES" Value="80"/>
      <ItemData ItemOID="IT.DA.DAORRESU" Value="TABLET"/>
      <ItemData ItemOID="IT.DA.DASTRESC" Value="80"/>
      <ItemData ItemOID="IT.DA.DASTRESN" Value="80"/>
      <ItemData ItemOID="IT.DA.DASTRESU" Value="TABLET"/>
      <ItemData ItemOID="IT.DA.VISITNUM" Value="3"/>
      <ItemData ItemOID="IT.DA.VISIT" Value="WEEK 2"/>
      <ItemData ItemOID="IT.DA.VISITDY" Value="15"/>
      <ItemData ItemOID="IT.DA.DADTC" Value="2003-05-13"/>
      <ItemData ItemOID="IT.DA.DADY" Value="15"/>
    </ItemGroupData>
    <ItemGroupData ItemGroupOID="IG.DA" data:ItemGroupDataSeq="3">
      <ItemData ItemOID="IT.STUDYID" Value="CDISC01"/>
      <ItemData ItemOID="IT.DA.DOMAIN" Value="DA"/>
      <ItemData ItemOID="IT.USUBJID" Value="CDISC01.100008"/>
      <ItemData ItemOID="IT.DA.DASEQ" Value="3"/>
      <ItemData ItemOID="IT.DA.DATESTCD" Value="RETAMT"/>
      <ItemData ItemOID="IT.DA.DATEST" Value="Returned Amount"/>
      <ItemData ItemOID="IT.DA.DAORRES" Value="22"/>
      <ItemData ItemOID="IT.DA.DAORRESU" Value="TABLET"/>
      <ItemData ItemOID="IT.DA.DASTRESC" Value="22"/>
      <ItemData ItemOID="IT.DA.DASTRESN" Value="21"/>
      <ItemData ItemOID="IT.DA.DASTRESU" Value="TABLET"/>
      <ItemData ItemOID="IT.DA.VISITNUM" Value="3"/>
      <ItemData ItemOID="IT.DA.VISIT" Value="WEEK 2"/>
      <ItemData ItemOID="IT.DA.VISITDY" Value="15"/>
      <ItemData ItemOID="IT.DA.DADTC" Value="2003-05-13"/>
      <ItemData ItemOID="IT.DA.DADY" Value="15"/>
    </ItemGroupData>
    <ItemGroupData ItemGroupOID="IG.DA" data:ItemGroupDataSeq="4">
      <ItemData ItemOID="IT.STUDYID" Value="CDISC01"/>
      <ItemData ItemOID="IT.DA.DOMAIN" Value="DA"/>
      <ItemData ItemOID="IT.USUBJID" Value="CDISC01.100008"/>
      <ItemData ItemOID="IT.DA.DASEQ" Value="4"/>
      <ItemData ItemOID="IT.DA.DATESTCD" Value="RETAMT"/>
      <ItemData ItemOID="IT.DA.DATEST" Value="Returned Amount"/>
      <ItemData ItemOID="IT.DA.DAORRES" Value="35"/>
      <ItemData ItemOID="IT.DA.DAORRESU" Value="TABLET"/>
      <ItemData ItemOID="IT.DA.DASTRESC" Value="35"/>
      <ItemData ItemOID="IT.DA.DASTRESN" Value="12"/>
      <ItemData ItemOID="IT.DA.DASTRESU" Value="TABLET"/>
      <ItemData ItemOID="IT.DA.VISITNUM" Value="10"/>
      <ItemData ItemOID="IT.DA.VISIT" Value="WEEK 24"/>
      <ItemData ItemOID="IT.DA.VISITDY" Value="169"/>
      <ItemData ItemOID="IT.DA.DADTC" Value="2003-10-13"/>
      <ItemData ItemOID="IT.DA.DADY" Value="168"/>
    </ItemGroupData>
    <ItemGroupData ItemGroupOID="IG.DA" data:ItemGroupDataSeq="5">
      <ItemData ItemOID="IT.STUDYID" Value="CDISC01"/>
      <ItemData ItemOID="IT.DA.DOMAIN" Value="DA"/>
      <ItemData ItemOID="IT.USUBJID" Value="CDISC01.100014"/>
      <ItemData ItemOID="IT.DA.DASEQ" Value="1"/>
      <ItemData ItemOID="IT.DA.DATESTCD" Value="DISPAMT"/>
      <ItemData ItemOID="IT.DA.DATEST" Value="Dispensed Amount"/>
      <ItemData ItemOID="IT.DA.DAORRES" Value="80"/>
      <ItemData ItemOID="IT.DA.DAORRESU" Value="TABLET"/>
      <ItemData ItemOID="IT.DA.DASTRESC" Value="80"/>
      <ItemData ItemOID="IT.DA.DASTRESN" Value="40"/>
      <ItemData ItemOID="IT.DA.DASTRESU" Value="TABLET"/>
      <ItemData ItemOID="IT.DA.VISITNUM" Value="2"/>
      <ItemData ItemOID="IT.DA.VISIT" Value="BASELINE"/>
      <ItemData ItemOID="IT.DA.VISITDY" Value="1"/>
      <ItemData ItemOID="IT.DA.DADTC" Value="2003-10-15"/>
      <ItemData ItemOID="IT.DA.DADY" Value="1"/>
    </ItemGroupData>
    <ItemGroupData ItemGroupOID="IG.DA" data:ItemGroupDataSeq="6">
      <ItemData ItemOID="IT.STUDYID" Value="CDISC01"/>
      <ItemData ItemOID="IT.DA.DOMAIN" Value="DA"/>
      <ItemData ItemOID="IT.USUBJID" Value="CDISC01.100014"/>
      <ItemData ItemOID="IT.DA.DASEQ" Value="2"/>
      <ItemData ItemOID="IT.DA.DATESTCD" Value="DISPAMT"/>
      <ItemData ItemOID="IT.DA.DATEST" Value="Dispensed Amount"/>
      <ItemData ItemOID="IT.DA.DAORRES" Value="80"/>
      <ItemData ItemOID="IT.DA.DAORRESU" Value="TABLET"/>
      <ItemData ItemOID="IT.DA.DASTRESC" Value="80"/>
      <ItemData ItemOID="IT.DA.DASTRESN" Value="80"/>
      <ItemData ItemOID="IT.DA.DASTRESU" Value="TABLET"/>
      <ItemData ItemOID="IT.DA.VISITNUM" Value="3"/>
      <ItemData ItemOID="IT.DA.VISIT" Value="WEEK 2"/>
      <ItemData ItemOID="IT.DA.VISITDY" Value="15"/>
      <ItemData ItemOID="IT.DA.DADTC" Value="2003-10-31"/>
      <ItemData ItemOID="IT.DA.DADY" Value="17"/>
    </ItemGroupData>
    <ItemGroupData ItemGroupOID="IG.DA" data:ItemGroupDataSeq="7">
      <ItemData ItemOID="IT.STUDYID" Value="CDISC01"/>
      <ItemData ItemOID="IT.DA.DOMAIN" Value="DA"/>
      <ItemData ItemOID="IT.USUBJID" Value="CDISC01.100014"/>
      <ItemData ItemOID="IT.DA.DASEQ" Value="3"/>
      <ItemData ItemOID="IT.DA.DATESTCD" Value="RETAMT"/>
      <ItemData ItemOID="IT.DA.DATEST" Value="Returned Amount"/>
      <ItemData ItemOID="IT.DA.DAORRES" Value="44"/>
      <ItemData ItemOID="IT.DA.DAORRESU" Value="TABLET"/>
      <ItemData ItemOID="IT.DA.DASTRESC" Value="44"/>
      <ItemData ItemOID="IT.DA.DASTRESN" Value="4"/>
      <ItemData ItemOID="IT.DA.DASTRESU" Value="TABLET"/>
      <ItemData ItemOID="IT.DA.VISITNUM" Value="3"/>
      <ItemData ItemOID="IT.DA.VISIT" Value="WEEK 2"/>
      <ItemData ItemOID="IT.DA.VISITDY" Value="15"/>
      <ItemData ItemOID="IT.DA.DADTC" Value="2003-10-31"/>
      <ItemData ItemOID="IT.DA.DADY" Value="17"/>
    </ItemGroupData>
    <ItemGroupData ItemGroupOID="IG.DA" data:ItemGroupDataSeq="8">
      <ItemData ItemOID="IT.STUDYID" Value="CDISC01"/>
      <ItemData ItemOID="IT.DA.DOMAIN" Value="DA"/>
      <ItemData ItemOID="IT.USUBJID" Value="CDISC01.100014"/>
      <ItemData ItemOID="IT.DA.DASEQ" Value="4"/>
      <ItemData ItemOID="IT.DA.DATESTCD" Value="RETAMT"/>
      <ItemData ItemOID="IT.DA.DATEST" Value="Returned Amount"/>
      <ItemData ItemOID="IT.DA.DAORRES" Value="44"/>
      <ItemData ItemOID="IT.DA.DAORRESU" Value="TABLET"/>
      <ItemData ItemOID="IT.DA.DASTRESC" Value="44"/>
      <ItemData ItemOID="IT.DA.DASTRESN" Value="10"/>
      <ItemData ItemOID="IT.DA.DASTRESU" Value="TABLET"/>
      <ItemData ItemOID="IT.DA.VISITNUM" Value="10"/>
      <ItemData ItemOID="IT.DA.VISIT" Value="WEEK 24"/>
      <ItemData ItemOID="IT.DA.VISITDY" Value="169"/>
      <ItemData ItemOID="IT.DA.DADTC" Value="2004-03-30"/>
      <ItemData ItemOID="IT.DA.DADY" Value="168"/>
    </ItemGroupData>
    <ItemGroupData ItemGroupOID="IG.DA" data:ItemGroupDataSeq="9">
      <ItemData ItemOID="IT.STUDYID" Value="CDISC01"/>
      <ItemData ItemOID="IT.DA.DOMAIN" Value="DA"/>
      <ItemData ItemOID="IT.USUBJID" Value="CDISC01.200001"/>
      <ItemData ItemOID="IT.DA.DASEQ" Value="1"/>
      <ItemData ItemOID="IT.DA.DATESTCD" Value="DISPAMT"/>
      <ItemData ItemOID="IT.DA.DATEST" Value="Dispensed Amount"/>
      <ItemData ItemOID="IT.DA.DAORRES" Value="40"/>
      <ItemData ItemOID="IT.DA.DAORRESU" Value="TABLET"/>
      <ItemData ItemOID="IT.DA.DASTRESC" Value="40"/>
      <ItemData ItemOID="IT.DA.DASTRESN" Value="40"/>
      <ItemData ItemOID="IT.DA.DASTRESU" Value="TABLET"/>
      <ItemData ItemOID="IT.DA.VISITNUM" Value="2"/>
      <ItemData ItemOID="IT.DA.VISIT" Value="BASELINE"/>
      <ItemData ItemOID="IT.DA.VISITDY" Value="1"/>
      <ItemData ItemOID="IT.DA.DADTC" Value="2003-09-30"/>
      <ItemData ItemOID="IT.DA.DADY" Value="1"/>
    </ItemGroupData>
    <ItemGroupData ItemGroupOID="IG.DA" data:ItemGroupDataSeq="10">
      <ItemData ItemOID="IT.STUDYID" Value="CDISC01"/>
      <ItemData ItemOID="IT.DA.DOMAIN" Value="DA"/>
      <ItemData ItemOID="IT.USUBJID" Value="CDISC01.200001"/>
      <ItemData ItemOID="IT.DA.DASEQ" Value="2"/>
      <ItemData ItemOID="IT.DA.DATESTCD" Value="DISPAMT"/>
      <ItemData ItemOID="IT.DA.DATEST" Value="Dispensed Amount"/>
      <ItemData ItemOID="IT.DA.DAORRES" Value="80"/>
      <ItemData ItemOID="IT.DA.DAORRESU" Value="TABLET"/>
      <ItemData ItemOID="IT.DA.DASTRESC" Value="80"/>
      <ItemData ItemOID="IT.DA.DASTRESN" Value="80"/>
      <ItemData ItemOID="IT.DA.DASTRESU" Value="TABLET"/>
      <ItemData ItemOID="IT.DA.VISITNUM" Value="3"/>
      <ItemData ItemOID="IT.DA.VISIT" Value="WEEK 2"/>
      <ItemData ItemOID="IT.DA.VISITDY" Value="15"/>
      <ItemData ItemOID="IT.DA.DADTC" Value="2003-10-14"/>
      <ItemData ItemOID="IT.DA.DADY" Value="15"/>
    </ItemGroupData>
    <ItemGroupData ItemGroupOID="IG.DA" data:ItemGroupDataSeq="11">
      <ItemData ItemOID="IT.STUDYID" Value="CDISC01"/>
      <ItemData ItemOID="IT.DA.DOMAIN" Value="DA"/>
      <ItemData ItemOID="IT.USUBJID" Value="CDISC01.200001"/>
      <ItemData ItemOID="IT.DA.DASEQ" Value="3"/>
      <ItemData ItemOID="IT.DA.DATESTCD" Value="RETAMT"/>
      <ItemData ItemOID="IT.DA.DATEST" Value="Returned Amount"/>
      <ItemData ItemOID="IT.DA.DAORRES" Value="19"/>
      <ItemData ItemOID="IT.DA.DAORRESU" Value="TABLET"/>
      <ItemData ItemOID="IT.DA.DASTRESC" Value="19"/>
      <ItemData ItemOID="IT.DA.DASTRESN" Value="14"/>
      <ItemData ItemOID="IT.DA.DASTRESU" Value="TABLET"/>
      <ItemData ItemOID="IT.DA.VISITNUM" Value="3"/>
      <ItemData ItemOID="IT.DA.VISIT" Value="WEEK 2"/>
      <ItemData ItemOID="IT.DA.VISITDY" Value="15"/>
      <ItemData ItemOID="IT.DA.DADTC" Value="2003-10-14"/>
      <ItemData ItemOID="IT.DA.DADY" Value="15"/>
    </ItemGroupData>
    <ItemGroupData ItemGroupOID="IG.DA" data:ItemGroupDataSeq="12">
      <ItemData ItemOID="IT.STUDYID" Value="CDISC01"/>
      <ItemData ItemOID="IT.DA.DOMAIN" Value="DA"/>
      <ItemData ItemOID="IT.USUBJID" Value="CDISC01.200001"/>
      <ItemData ItemOID="IT.DA.DASEQ" Value="4"/>
      <ItemData ItemOID="IT.DA.DATESTCD" Value="RETAMT"/>
      <ItemData ItemOID="IT.DA.DATEST" Value="Returned Amount"/>
      <ItemData ItemOID="IT.DA.DAORRES" Value="37"/>
      <ItemData ItemOID="IT.DA.DAORRESU" Value="TABLET"/>
      <ItemData ItemOID="IT.DA.DASTRESC" Value="37"/>
      <ItemData ItemOID="IT.DA.DASTRESN" Value="11"/>
      <ItemData ItemOID="IT.DA.DASTRESU" Value="TABLET"/>
      <ItemData ItemOID="IT.DA.VISITNUM" Value="10"/>
      <ItemData ItemOID="IT.DA.VISIT" Value="WEEK 24"/>
      <ItemData ItemOID="IT.DA.VISITDY" Value="169"/>
      <ItemData ItemOID="IT.DA.DADTC" Value="2004-03-19"/>
      <ItemData ItemOID="IT.DA.DADY" Value="172"/>
    </ItemGroupData>
    <ItemGroupData ItemGroupOID="IG.DA" data:ItemGroupDataSeq="13">
      <ItemData ItemOID="IT.STUDYID" Value="CDISC01"/>
      <ItemData ItemOID="IT.DA.DOMAIN" Value="DA"/>
      <ItemData ItemOID="IT.USUBJID" Value="CDISC01.200002"/>
      <ItemData ItemOID="IT.DA.DASEQ" Value="1"/>
      <ItemData ItemOID="IT.DA.DATESTCD" Value="DISPAMT"/>
      <ItemData ItemOID="IT.DA.DATEST" Value="Dispensed Amount"/>
      <ItemData ItemOID="IT.DA.DAORRES" Value="40"/>
      <ItemData ItemOID="IT.DA.DAORRESU" Value="TABLET"/>
      <ItemData ItemOID="IT.DA.DASTRESC" Value="40"/>
      <ItemData ItemOID="IT.DA.DASTRESN" Value="40"/>
      <ItemData ItemOID="IT.DA.DASTRESU" Value="TABLET"/>
      <ItemData ItemOID="IT.DA.VISITNUM" Value="2"/>
      <ItemData ItemOID="IT.DA.VISIT" Value="BASELINE"/>
      <ItemData ItemOID="IT.DA.VISITDY" Value="1"/>
      <ItemData ItemOID="IT.DA.DADTC" Value="2003-10-10"/>
      <ItemData ItemOID="IT.DA.DADY" Value="1"/>
    </ItemGroupData>
    <ItemGroupData ItemGroupOID="IG.DA" data:ItemGroupDataSeq="14">
      <ItemData ItemOID="IT.STUDYID" Value="CDISC01"/>
      <ItemData ItemOID="IT.DA.DOMAIN" Value="DA"/>
      <ItemData ItemOID="IT.USUBJID" Value="CDISC01.200002"/>
      <ItemData ItemOID="IT.DA.DASEQ" Value="2"/>
      <ItemData ItemOID="IT.DA.DATESTCD" Value="DISPAMT"/>
      <ItemData ItemOID="IT.DA.DATEST" Value="Dispensed Amount"/>
      <ItemData ItemOID="IT.DA.DAORRES" Value="80"/>
      <ItemData ItemOID="IT.DA.DAORRESU" Value="TABLET"/>
      <ItemData ItemOID="IT.DA.DASTRESC" Value="80"/>
      <ItemData ItemOID="IT.DA.DASTRESN" Value="80"/>
      <ItemData ItemOID="IT.DA.DASTRESU" Value="TABLET"/>
      <ItemData ItemOID="IT.DA.VISITNUM" Value="3"/>
      <ItemData ItemOID="IT.DA.VISIT" Value="WEEK 2"/>
      <ItemData ItemOID="IT.DA.VISITDY" Value="15"/>
      <ItemData ItemOID="IT.DA.DADTC" Value="2003-10-24"/>
      <ItemData ItemOID="IT.DA.DADY" Value="15"/>
    </ItemGroupData>
    <ItemGroupData ItemGroupOID="IG.DA" data:ItemGroupDataSeq="15">
      <ItemData ItemOID="IT.STUDYID" Value="CDISC01"/>
      <ItemData ItemOID="IT.DA.DOMAIN" Value="DA"/>
      <ItemData ItemOID="IT.USUBJID" Value="CDISC01.200002"/>
      <ItemData ItemOID="IT.DA.DASEQ" Value="3"/>
      <ItemData ItemOID="IT.DA.DATESTCD" Value="RETAMT"/>
      <ItemData ItemOID="IT.DA.DATEST" Value="Returned Amount"/>
      <ItemData ItemOID="IT.DA.DAORRES" Value="22"/>
      <ItemData ItemOID="IT.DA.DAORRESU" Value="TABLET"/>
      <ItemData ItemOID="IT.DA.DASTRESC" Value="22"/>
      <ItemData ItemOID="IT.DA.DASTRESN" Value="22"/>
      <ItemData ItemOID="IT.DA.DASTRESU" Value="TABLET"/>
      <ItemData ItemOID="IT.DA.VISITNUM" Value="3"/>
      <ItemData ItemOID="IT.DA.VISIT" Value="WEEK 2"/>
      <ItemData ItemOID="IT.DA.VISITDY" Value="15"/>
      <ItemData ItemOID="IT.DA.DADTC" Value="2003-10-24"/>
      <ItemData ItemOID="IT.DA.DADY" Value="15"/>
    </ItemGroupData>
    <ItemGroupData ItemGroupOID="IG.DA" data:ItemGroupDataSeq="16">
      <ItemData ItemOID="IT.STUDYID" Value="CDISC01"/>
      <ItemData ItemOID="IT.DA.DOMAIN" Value="DA"/>
      <ItemData ItemOID="IT.USUBJID" Value="CDISC01.200002"/>
      <ItemData ItemOID="IT.DA.DASEQ" Value="4"/>
      <ItemData ItemOID="IT.DA.DATESTCD" Value="RETAMT"/>
      <ItemData ItemOID="IT.DA.DATEST" Value="Returned Amount"/>
      <ItemData ItemOID="IT.DA.DAORRES" Value="35"/>
      <ItemData ItemOID="IT.DA.DAORRESU" Value="TABLET"/>
      <ItemData ItemOID="IT.DA.DASTRESC" Value="35"/>
      <ItemData ItemOID="IT.DA.DASTRESN" Value="17"/>
      <ItemData ItemOID="IT.DA.DASTRESU" Value="TABLET"/>
      <ItemData ItemOID="IT.DA.VISITNUM" Value="10"/>
      <ItemData ItemOID="IT.DA.VISIT" Value="WEEK 24"/>
      <ItemData ItemOID="IT.DA.VISITDY" Value="169"/>
      <ItemData ItemOID="IT.DA.DADTC" Value="2004-02-12"/>
      <ItemData ItemOID="IT.DA.DADY" Value="126"/>
    </ItemGroupData>
  </ClinicalData>
</ODM>
