<?xml version="1.0" encoding="UTF-8"?>
<!-- Dataset-XML: Untyped Data Example  --> 
<!-- Built from the SAS XPT files published with the SDTM-MSG (SDTM Metadata Submission Guidelines) V1 --> 
<!-- Prepared by Marcelina Hungria / DIcore Group, LLC --> 
<ODM
  xmlns="http://www.cdisc.org/ns/odm/v1.3"
  xmlns:xlink="http://www.w3.org/1999/xlink" 
  xmlns:data="http://www.cdisc.org/ns/Dataset-XML/v1.0"
  FileType="Snapshot"
  ODMVersion="1.3.2"
  data:DatasetXMLVersion="1.0.0"
  FileOID="www.cdisc.org.Studycdisc01-Define-XML_2.0.0(IG.IE)"
  PriorFileOID="www.cdisc.org.Studycdisc01-Define-XML_2.0.0"
  Originator="CDISC Dataset-XML Team"
  CreationDateTime="2014-04-01T09:31:03">
  <ClinicalData
    StudyOID="cdisc01"
    MetaDataVersionOID="MDV.CDISC01.SDTMIG.3.1.2.SDTM.1.2">
    <!-- Dataset (IE) -->
    <ItemGroupData ItemGroupOID="IG.IE" data:ItemGroupDataSeq="1">
      <ItemData ItemOID="IT.STUDYID" Value="CDISC01"/>
      <ItemData ItemOID="IT.IE.DOMAIN" Value="IE"/>
      <ItemData ItemOID="IT.USUBJID" Value="CDISC01.200005"/>
      <ItemData ItemOID="IT.IE.IESEQ" Value="1"/>
      <ItemData ItemOID="IT.IE.IETESTCD" Value="INCL03"/>
      <ItemData ItemOID="IT.IE.IETEST" Value="Did not respond to a standard course of medication Abc"/>
      <ItemData ItemOID="IT.IE.IECAT" Value="INCLUSION"/>
      <ItemData ItemOID="IT.IE.IEORRES" Value="N"/>
      <ItemData ItemOID="IT.IE.IESTRESC" Value="N"/>
      <ItemData ItemOID="IT.IE.VISITNUM" Value="1"/>
      <ItemData ItemOID="IT.IE.VISIT" Value="SCREEN"/>
      <ItemData ItemOID="IT.IE.IEDTC" Value="2003-09-15"/>
    </ItemGroupData>
  </ClinicalData>
</ODM>
