<?xml version="1.0" encoding="UTF-8"?>
<!-- Dataset-XML: Untyped Data Example  --> 
<!-- Built from the SAS XPT files published with the SDTM-MSG (SDTM Metadata Submission Guidelines) V1 --> 
<!-- Prepared by Marcelina Hungria / DIcore Group, LLC --> 
<ODM
  xmlns="http://www.cdisc.org/ns/odm/v1.3"
  xmlns:xlink="http://www.w3.org/1999/xlink" 
  xmlns:data="http://www.cdisc.org/ns/Dataset-XML/v1.0"
  FileType="Snapshot"
  ODMVersion="1.3.2"
  data:DatasetXMLVersion="1.0.0"
  FileOID="www.cdisc.org.Studycdisc01-Define-XML_2.0.0(IG.SC)"
  PriorFileOID="www.cdisc.org.Studycdisc01-Define-XML_2.0.0"
  Originator="CDISC Dataset-XML Team"
  CreationDateTime="2014-04-01T09:31:03">
  <ClinicalData
    StudyOID="cdisc01"
    MetaDataVersionOID="MDV.CDISC01.SDTMIG.3.1.2.SDTM.1.2">
    <!-- Dataset (SC) -->
    <ItemGroupData ItemGroupOID="IG.SC" data:ItemGroupDataSeq="1">
      <ItemData ItemOID="IT.STUDYID" Value="CDISC01"/>
      <ItemData ItemOID="IT.SC.DOMAIN" Value="SC"/>
      <ItemData ItemOID="IT.USUBJID" Value="CDISC01.100008"/>
      <ItemData ItemOID="IT.SC.SCSEQ" Value="1"/>
      <ItemData ItemOID="IT.SC.SCTESTCD" Value="EDLEVEL"/>
      <ItemData ItemOID="IT.SC.SCTEST" Value="Education Level"/>
      <ItemData ItemOID="IT.SC.SCORRES" Value="HIGH SCHOOL GRADUATE/GED"/>
      <ItemData ItemOID="IT.SC.SCSTRESC" Value="HIGH SCHOOL GRADUATE/GED"/>
      <ItemData ItemOID="IT.SC.SCDTC" Value="2003-04-15"/>
      <ItemData ItemOID="IT.SC.SCDY" Value="-14"/>
    </ItemGroupData>
    <ItemGroupData ItemGroupOID="IG.SC" data:ItemGroupDataSeq="2">
      <ItemData ItemOID="IT.STUDYID" Value="CDISC01"/>
      <ItemData ItemOID="IT.SC.DOMAIN" Value="SC"/>
      <ItemData ItemOID="IT.USUBJID" Value="CDISC01.100008"/>
      <ItemData ItemOID="IT.SC.SCSEQ" Value="2"/>
      <ItemData ItemOID="IT.SC.SCTESTCD" Value="MARISTAT"/>
      <ItemData ItemOID="IT.SC.SCTEST" Value="Marital Status"/>
      <ItemData ItemOID="IT.SC.SCORRES" Value="DIVORCED"/>
      <ItemData ItemOID="IT.SC.SCSTRESC" Value="DIVORCED"/>
      <ItemData ItemOID="IT.SC.SCDTC" Value="2003-04-15"/>
      <ItemData ItemOID="IT.SC.SCDY" Value="-14"/>
    </ItemGroupData>
    <ItemGroupData ItemGroupOID="IG.SC" data:ItemGroupDataSeq="3">
      <ItemData ItemOID="IT.STUDYID" Value="CDISC01"/>
      <ItemData ItemOID="IT.SC.DOMAIN" Value="SC"/>
      <ItemData ItemOID="IT.USUBJID" Value="CDISC01.100008"/>
      <ItemData ItemOID="IT.SC.SCSEQ" Value="3"/>
      <ItemData ItemOID="IT.SC.SCTESTCD" Value="SUBJINIT"/>
      <ItemData ItemOID="IT.SC.SCTEST" Value="Subject Initials"/>
      <ItemData ItemOID="IT.SC.SCORRES" Value="AAB"/>
      <ItemData ItemOID="IT.SC.SCSTRESC" Value="AAB"/>
      <ItemData ItemOID="IT.SC.SCDTC" Value="2003-04-15"/>
      <ItemData ItemOID="IT.SC.SCDY" Value="-14"/>
    </ItemGroupData>
    <ItemGroupData ItemGroupOID="IG.SC" data:ItemGroupDataSeq="4">
      <ItemData ItemOID="IT.STUDYID" Value="CDISC01"/>
      <ItemData ItemOID="IT.SC.DOMAIN" Value="SC"/>
      <ItemData ItemOID="IT.USUBJID" Value="CDISC01.100014"/>
      <ItemData ItemOID="IT.SC.SCSEQ" Value="1"/>
      <ItemData ItemOID="IT.SC.SCTESTCD" Value="EDLEVEL"/>
      <ItemData ItemOID="IT.SC.SCTEST" Value="Education Level"/>
      <ItemData ItemOID="IT.SC.SCORRES" Value="SOME COLLEGE"/>
      <ItemData ItemOID="IT.SC.SCSTRESC" Value="SOME COLLEGE"/>
      <ItemData ItemOID="IT.SC.SCDTC" Value="2003-10-06"/>
      <ItemData ItemOID="IT.SC.SCDY" Value="-9"/>
    </ItemGroupData>
    <ItemGroupData ItemGroupOID="IG.SC" data:ItemGroupDataSeq="5">
      <ItemData ItemOID="IT.STUDYID" Value="CDISC01"/>
      <ItemData ItemOID="IT.SC.DOMAIN" Value="SC"/>
      <ItemData ItemOID="IT.USUBJID" Value="CDISC01.100014"/>
      <ItemData ItemOID="IT.SC.SCSEQ" Value="2"/>
      <ItemData ItemOID="IT.SC.SCTESTCD" Value="MARISTAT"/>
      <ItemData ItemOID="IT.SC.SCTEST" Value="Marital Status"/>
      <ItemData ItemOID="IT.SC.SCORRES" Value="MARRIED"/>
      <ItemData ItemOID="IT.SC.SCSTRESC" Value="MARRIED"/>
      <ItemData ItemOID="IT.SC.SCDTC" Value="2003-10-06"/>
      <ItemData ItemOID="IT.SC.SCDY" Value="-9"/>
    </ItemGroupData>
    <ItemGroupData ItemGroupOID="IG.SC" data:ItemGroupDataSeq="6">
      <ItemData ItemOID="IT.STUDYID" Value="CDISC01"/>
      <ItemData ItemOID="IT.SC.DOMAIN" Value="SC"/>
      <ItemData ItemOID="IT.USUBJID" Value="CDISC01.100014"/>
      <ItemData ItemOID="IT.SC.SCSEQ" Value="3"/>
      <ItemData ItemOID="IT.SC.SCTESTCD" Value="SUBJINIT"/>
      <ItemData ItemOID="IT.SC.SCTEST" Value="Subject Initials"/>
      <ItemData ItemOID="IT.SC.SCORRES" Value="AAS"/>
      <ItemData ItemOID="IT.SC.SCSTRESC" Value="AAS"/>
      <ItemData ItemOID="IT.SC.SCDTC" Value="2003-10-06"/>
      <ItemData ItemOID="IT.SC.SCDY" Value="-9"/>
    </ItemGroupData>
    <ItemGroupData ItemGroupOID="IG.SC" data:ItemGroupDataSeq="7">
      <ItemData ItemOID="IT.STUDYID" Value="CDISC01"/>
      <ItemData ItemOID="IT.SC.DOMAIN" Value="SC"/>
      <ItemData ItemOID="IT.USUBJID" Value="CDISC01.200001"/>
      <ItemData ItemOID="IT.SC.SCSEQ" Value="1"/>
      <ItemData ItemOID="IT.SC.SCTESTCD" Value="EDLEVEL"/>
      <ItemData ItemOID="IT.SC.SCTEST" Value="Education Level"/>
      <ItemData ItemOID="IT.SC.SCORRES" Value="HIGH SCHOOL GRADUATE/GED"/>
      <ItemData ItemOID="IT.SC.SCSTRESC" Value="HIGH SCHOOL GRADUATE/GED"/>
      <ItemData ItemOID="IT.SC.SCDTC" Value="2003-09-09"/>
      <ItemData ItemOID="IT.SC.SCDY" Value="-21"/>
    </ItemGroupData>
    <ItemGroupData ItemGroupOID="IG.SC" data:ItemGroupDataSeq="8">
      <ItemData ItemOID="IT.STUDYID" Value="CDISC01"/>
      <ItemData ItemOID="IT.SC.DOMAIN" Value="SC"/>
      <ItemData ItemOID="IT.USUBJID" Value="CDISC01.200001"/>
      <ItemData ItemOID="IT.SC.SCSEQ" Value="2"/>
      <ItemData ItemOID="IT.SC.SCTESTCD" Value="MARISTAT"/>
      <ItemData ItemOID="IT.SC.SCTEST" Value="Marital Status"/>
      <ItemData ItemOID="IT.SC.SCORRES" Value="MARRIED"/>
      <ItemData ItemOID="IT.SC.SCSTRESC" Value="MARRIED"/>
      <ItemData ItemOID="IT.SC.SCDTC" Value="2003-09-09"/>
      <ItemData ItemOID="IT.SC.SCDY" Value="-21"/>
    </ItemGroupData>
    <ItemGroupData ItemGroupOID="IG.SC" data:ItemGroupDataSeq="9">
      <ItemData ItemOID="IT.STUDYID" Value="CDISC01"/>
      <ItemData ItemOID="IT.SC.DOMAIN" Value="SC"/>
      <ItemData ItemOID="IT.USUBJID" Value="CDISC01.200001"/>
      <ItemData ItemOID="IT.SC.SCSEQ" Value="3"/>
      <ItemData ItemOID="IT.SC.SCTESTCD" Value="SUBJINIT"/>
      <ItemData ItemOID="IT.SC.SCTEST" Value="Subject Initials"/>
      <ItemData ItemOID="IT.SC.SCORRES" Value="AAX"/>
      <ItemData ItemOID="IT.SC.SCSTRESC" Value="AAX"/>
      <ItemData ItemOID="IT.SC.SCDTC" Value="2003-09-09"/>
      <ItemData ItemOID="IT.SC.SCDY" Value="-21"/>
    </ItemGroupData>
    <ItemGroupData ItemGroupOID="IG.SC" data:ItemGroupDataSeq="10">
      <ItemData ItemOID="IT.STUDYID" Value="CDISC01"/>
      <ItemData ItemOID="IT.SC.DOMAIN" Value="SC"/>
      <ItemData ItemOID="IT.USUBJID" Value="CDISC01.200002"/>
      <ItemData ItemOID="IT.SC.SCSEQ" Value="1"/>
      <ItemData ItemOID="IT.SC.SCTESTCD" Value="EDLEVEL"/>
      <ItemData ItemOID="IT.SC.SCTEST" Value="Education Level"/>
      <ItemData ItemOID="IT.SC.SCORRES" Value="COLLEGE GRADUATE"/>
      <ItemData ItemOID="IT.SC.SCSTRESC" Value="COLLEGE GRADUATE"/>
      <ItemData ItemOID="IT.SC.SCDTC" Value="2003-09-18"/>
      <ItemData ItemOID="IT.SC.SCDY" Value="-22"/>
    </ItemGroupData>
    <ItemGroupData ItemGroupOID="IG.SC" data:ItemGroupDataSeq="11">
      <ItemData ItemOID="IT.STUDYID" Value="CDISC01"/>
      <ItemData ItemOID="IT.SC.DOMAIN" Value="SC"/>
      <ItemData ItemOID="IT.USUBJID" Value="CDISC01.200002"/>
      <ItemData ItemOID="IT.SC.SCSEQ" Value="2"/>
      <ItemData ItemOID="IT.SC.SCTESTCD" Value="MARISTAT"/>
      <ItemData ItemOID="IT.SC.SCTEST" Value="Marital Status"/>
      <ItemData ItemOID="IT.SC.SCORRES" Value="WIDOWED"/>
      <ItemData ItemOID="IT.SC.SCSTRESC" Value="WIDOWED"/>
      <ItemData ItemOID="IT.SC.SCDTC" Value="2003-09-18"/>
      <ItemData ItemOID="IT.SC.SCDY" Value="-22"/>
    </ItemGroupData>
    <ItemGroupData ItemGroupOID="IG.SC" data:ItemGroupDataSeq="12">
      <ItemData ItemOID="IT.STUDYID" Value="CDISC01"/>
      <ItemData ItemOID="IT.SC.DOMAIN" Value="SC"/>
      <ItemData ItemOID="IT.USUBJID" Value="CDISC01.200002"/>
      <ItemData ItemOID="IT.SC.SCSEQ" Value="3"/>
      <ItemData ItemOID="IT.SC.SCTESTCD" Value="SUBJINIT"/>
      <ItemData ItemOID="IT.SC.SCTEST" Value="Subject Initials"/>
      <ItemData ItemOID="IT.SC.SCORRES" Value="AAL"/>
      <ItemData ItemOID="IT.SC.SCSTRESC" Value="AAL"/>
      <ItemData ItemOID="IT.SC.SCDTC" Value="2003-09-18"/>
      <ItemData ItemOID="IT.SC.SCDY" Value="-22"/>
    </ItemGroupData>
    <ItemGroupData ItemGroupOID="IG.SC" data:ItemGroupDataSeq="13">
      <ItemData ItemOID="IT.STUDYID" Value="CDISC01"/>
      <ItemData ItemOID="IT.SC.DOMAIN" Value="SC"/>
      <ItemData ItemOID="IT.USUBJID" Value="CDISC01.200005"/>
      <ItemData ItemOID="IT.SC.SCSEQ" Value="1"/>
      <ItemData ItemOID="IT.SC.SCTESTCD" Value="EDLEVEL"/>
      <ItemData ItemOID="IT.SC.SCTEST" Value="Education Level"/>
      <ItemData ItemOID="IT.SC.SCORRES" Value="GRADUATE DEGREE &amp; BEYOND"/>
      <ItemData ItemOID="IT.SC.SCSTRESC" Value="GRADUATE DEGREE &amp; BEYOND"/>
      <ItemData ItemOID="IT.SC.SCDTC" Value="2003-09-15"/>
    </ItemGroupData>
    <ItemGroupData ItemGroupOID="IG.SC" data:ItemGroupDataSeq="14">
      <ItemData ItemOID="IT.STUDYID" Value="CDISC01"/>
      <ItemData ItemOID="IT.SC.DOMAIN" Value="SC"/>
      <ItemData ItemOID="IT.USUBJID" Value="CDISC01.200005"/>
      <ItemData ItemOID="IT.SC.SCSEQ" Value="2"/>
      <ItemData ItemOID="IT.SC.SCTESTCD" Value="MARISTAT"/>
      <ItemData ItemOID="IT.SC.SCTEST" Value="Marital Status"/>
      <ItemData ItemOID="IT.SC.SCORRES" Value="MARRIED"/>
      <ItemData ItemOID="IT.SC.SCSTRESC" Value="MARRIED"/>
      <ItemData ItemOID="IT.SC.SCDTC" Value="2003-09-15"/>
    </ItemGroupData>
    <ItemGroupData ItemGroupOID="IG.SC" data:ItemGroupDataSeq="15">
      <ItemData ItemOID="IT.STUDYID" Value="CDISC01"/>
      <ItemData ItemOID="IT.SC.DOMAIN" Value="SC"/>
      <ItemData ItemOID="IT.USUBJID" Value="CDISC01.200005"/>
      <ItemData ItemOID="IT.SC.SCSEQ" Value="3"/>
      <ItemData ItemOID="IT.SC.SCTESTCD" Value="SUBJINIT"/>
      <ItemData ItemOID="IT.SC.SCTEST" Value="Subject Initials"/>
      <ItemData ItemOID="IT.SC.SCORRES" Value="AAO"/>
      <ItemData ItemOID="IT.SC.SCSTRESC" Value="AAO"/>
      <ItemData ItemOID="IT.SC.SCDTC" Value="2003-09-15"/>
    </ItemGroupData>
  </ClinicalData>
</ODM>
