<?xml version="1.0" encoding="UTF-8"?>
<!-- Dataset-XML: Untyped Data Example  --> 
<!-- Built from the SAS XPT files published with the SDTM-MSG (SDTM Metadata Submission Guidelines) V1 --> 
<!-- Prepared by Marcelina Hungria / DIcore Group, LLC --> 
<ODM
  xmlns="http://www.cdisc.org/ns/odm/v1.3"
  xmlns:xlink="http://www.w3.org/1999/xlink" 
  xmlns:data="http://www.cdisc.org/ns/Dataset-XML/v1.0"
  FileType="Snapshot"
  ODMVersion="1.3.2"
  data:DatasetXMLVersion="1.0.0"
  FileOID="www.cdisc.org.Studycdisc01-Define-XML_2.0.0(IG.SUPPVS)"
  PriorFileOID="www.cdisc.org.Studycdisc01-Define-XML_2.0.0"
  Originator="CDISC Dataset-XML Team"
  CreationDateTime="2014-04-01T09:31:03">
  <ClinicalData
    StudyOID="cdisc01"
    MetaDataVersionOID="MDV.CDISC01.SDTMIG.3.1.2.SDTM.1.2">
    <!-- Dataset (SUPPVS) -->
    <ItemGroupData ItemGroupOID="IG.SUPPVS" data:ItemGroupDataSeq="1">
      <ItemData ItemOID="IT.STUDYID" Value="CDISC01"/>
      <ItemData ItemOID="IT.RDOMAIN" Value="VS"/>
      <ItemData ItemOID="IT.USUBJID" Value="CDISC01.100014"/>
      <ItemData ItemOID="IT.SUPPVS.IDVAR" Value="VSSEQ"/>
      <ItemData ItemOID="IT.SUPPVS.IDVARVAL" Value="18"/>
      <ItemData ItemOID="IT.SUPPVS.QNAM" Value="VSCLSIG"/>
      <ItemData ItemOID="IT.SUPPVS.QLABEL" Value="Clinically Significant"/>
      <ItemData ItemOID="IT.SUPPVS.QVAL" Value="Y"/>
      <ItemData ItemOID="IT.SUPPVS.QORIG" Value="Derived"/>
      <ItemData ItemOID="IT.SUPPVS.QEVAL" Value="CLINICAL STUDY SPONSOR"/>
    </ItemGroupData>
  </ClinicalData>
</ODM>
